seq,timestamp_ms,ax,ay,az,gx,gy,gz
1,135098,3164,5930,-4361,100,-44,63
2,135107,3222,5914,-4497,128,-45,80
3,135117,3262,5941,-4587,104,-45,85
4,135127,3282,5971,-4636,66,-43,85
5,135137,3313,5999,-4633,36,-39,89
6,135147,3324,5935,-4567,10,-37,92
7,135157,3322,5836,-4484,4,-37,86
8,135167,3308,5832,-4443,24,-35,76
9,135177,3292,5909,-4466,48,-26,62
10,135187,3264,5938,-4531,63,-22,52
11,135197,3279,5917,-4594,54,-19,53
12,135207,3326,5907,-4590,41,-13,52
13,135217,3363,5915,-4528,29,-10,40
14,135227,3364,5983,-4463,16,-3,25
15,135237,3306,6006,-4432,12,5,20
16,135250,3344,5908,-4552,24,9,30
17,135261,3392,5903,-4625,15,16,20
18,135274,3368,5946,-4623,1,26,1
19,135282,3290,5908,-4599,-9,32,-10
20,135292,3267,5904,-4595,-22,30,-10
21,135302,3269,5893,-4546,-26,34,-7
22,135312,3273,5872,-4503,-14,36,-5
23,135322,3278,5903,-4459,-8,35,-10
24,135331,3280,5891,-4509,2,28,-14
25,135345,3251,5902,-4610,20,26,-11
26,135358,3238,5930,-4666,-1,28,-8
27,135366,3246,5867,-4639,-27,28,1
28,135377,3308,5835,-4579,-31,31,7
29,135387,3333,5766,-4548,-30,31,6
30,135401,3312,5758,-4547,-22,28,4
31,135411,3280,5816,-4546,-14,29,3
32,135420,3248,5802,-4512,1,28,13
33,135430,3287,5832,-4469,9,25,23
34,135441,3332,5785,-4480,18,25,32
35,135455,3350,5815,-4464,40,25,34
36,135465,3321,5855,-4488,32,22,27
37,135475,3273,5885,-4514,24,25,30
38,135485,3264,5861,-4554,25,27,38
39,135495,3260,5814,-4528,23,30,45
40,135505,3288,5780,-4477,19,30,52
41,135515,3348,5765,-4436,27,27,55
42,135526,3426,5811,-4417,50,30,57
43,135535,3428,5824,-4477,80,29,57
44,135547,3424,5834,-4615,104,21,54
45,135557,3412,5821,-4693,106,25,55
46,135566,3418,5786,-4650,83,32,60
47,135577,3403,5782,-4542,63,40,61
48,135586,3362,5756,-4428,51,44,58
49,135609,3313,5778,-4464,95,38,61
50,135618,3325,5873,-4575,120,40,63
51,135628,3342,5886,-4685,121,45,71
52,135638,3411,5850,-4704,110,45,81
53,135649,3464,5803,-4679,85,44,80
54,135660,3473,5690,-4651,76,46,72
55,135676,3467,5678,-4539,88,59,47
56,135686,3467,5678,-4539,88,59,47
57,135696,3434,5740,-4527,85,59,34
58,135706,3373,5793,-4627,101,55,40
59,135717,3425,5773,-4652,86,52,46
60,135731,3449,5758,-4604,73,50,44
61,135740,3466,5758,-4541,73,50,45
62,135751,3499,5661,-4606,94,45,49
63,135761,3568,5727,-4726,124,43,36
64,135771,3546,5776,-4758,116,52,19
65,135781,3491,5760,-4763,97,53,11
66,135791,3511,5771,-4762,81,43,8
67,135802,3516,5707,-4795,65,32,4
68,135814,3494,5713,-4779,49,27,-1
69,135824,3453,5703,-4686,29,28,-8
70,135834,3409,5696,-4585,25,29,-13
71,135844,3421,5694,-4586,47,34,-12
72,135854,3456,5658,-4687,67,36,-6
73,135870,3514,5671,-4787,27,28,-14
74,135888,3460,5654,-4787,8,26,-16
75,135896,3458,5622,-4760,-7,20,-13
76,135906,3463,5627,-4723,-15,12,-16
77,135918,3471,5640,-4703,-5,7,-16
78,135932,3475,5671,-4741,26,1,-17
79,135940,3460,5652,-4767,19,-1,-19
80,135950,3470,5675,-4746,-2,1,-18
81,135971,3418,5625,-4629,-45,5,-11
82,135979,3418,5625,-4629,-45,5,-11
83,135989,3433,5600,-4562,-48,0,-1
84,135999,3456,5615,-4571,-25,-9,4
85,136009,3487,5598,-4663,3,-12,5
86,136019,3491,5585,-4758,11,-11,5
87,136030,3481,5616,-4789,7,-10,5
88,136040,3457,5642,-4764,-9,-5,1
89,136050,3402,5684,-4722,-29,-1,2
90,136060,3389,5694,-4685,-42,-1,9
91,136072,3435,5710,-4634,-51,-9,19
92,136082,3476,5625,-4622,-58,-9,24
93,136092,3530,5650,-4612,-50,-11,19
94,136102,3530,5650,-4612,-50,-11,19
95,136112,3536,5666,-4634,-34,-13,10
96,136122,3468,5763,-4609,-33,-13,1
97,136139,3476,5757,-4661,0,-18,20
98,136152,3554,5733,-4755,16,-22,21
99,136161,3586,5685,-4701,-13,-13,20
100,136179,3539,5669,-4666,-13,-15,-1
101,136191,3508,5695,-4665,-15,-16,-9
102,136203,3479,5666,-4661,-23,-13,-8
103,136220,3522,5635,-4670,-11,-10,-4
104,136229,3522,5672,-4694,-17,-13,-15
105,136239,3460,5712,-4738,-18,-16,-24
106,136249,3379,5771,-4660,-28,-14,-21
107,136259,3364,5765,-4579,-29,-16,-9
108,136269,3412,5715,-4551,-8,-29,3
109,136287,3490,5717,-4756,23,-36,-11
110,136311,3426,5734,-4786,-17,-28,-30
111,136324,3455,5700,-4696,-33,-27,-28
112,136339,3542,5595,-4564,-34,-25,-30
113,136354,3492,5623,-4573,-23,-26,-35
114,136365,3425,5680,-4590,0,-28,-35
115,136375,3394,5650,-4571,14,-26,-26
116,136385,3410,5635,-4559,24,-28,-18
117,136395,3430,5716,-4657,45,-34,-16
118,136405,3420,5738,-4778,51,-28,-11
119,136415,3399,5680,-4831,30,-21,-4
120,136425,3413,5662,-4804,0,-23,0
121,136435,3409,5681,-4743,-21,-23,-2
122,136444,3375,5685,-4678,-28,-18,-3
123,136476,3298,5645,-4582,3,-21,9
124,136487,3305,5676,-4547,12,-23,14
125,136505,3440,5685,-4636,45,-27,26
126,136515,3514,5756,-4769,48,-30,21
127,136525,3511,5757,-4812,33,-27,19
128,136535,3483,5704,-4769,14,-21,17
129,136545,3462,5657,-4773,-4,-20,17
130,136556,3412,5638,-4768,-18,-23,14
131,136567,3387,5654,-4697,-34,-22,12
132,136586,3309,5609,-4661,-13,-25,24
133,136609,3352,5591,-4730,10,-34,40
134,136628,3396,5661,-4767,17,-41,48
135,136641,3429,5665,-4714,14,-47,61
136,136651,3453,5662,-4676,18,-49,63
137,136661,3447,5653,-4679,17,-43,59
138,136670,3431,5680,-4713,21,-43,56
139,136681,3423,5713,-4775,18,-44,54
140,136691,3400,5706,-4805,-1,-43,55
141,136702,3384,5705,-4724,-25,-39,56
142,136711,3377,5678,-4658,-31,-37,54
143,136722,3381,5669,-4638,-17,-33,54
144,136739,3379,5665,-4627,-1,-33,56
145,136758,3464,5646,-4764,21,-35,55
146,136780,3496,5746,-4744,-2,-27,38
147,136794,3476,5699,-4690,-13,-24,38
148,136805,3539,5637,-4653,1,-24,38
149,136816,3495,5636,-4682,5,-19,28
150,136826,3440,5655,-4697,3,-14,23
151,136836,3406,5658,-4729,6,-13,25
152,136846,3398,5632,-4756,6,-12,26
153,136856,3417,5641,-4744,3,-7,25
154,136866,3412,5653,-4710,1,-2,22
155,136876,3406,5632,-4691,2,-2,19
156,136886,3443,5645,-4742,8,-2,20
157,136897,3455,5660,-4797,9,-3,18
158,136918,3447,5647,-4731,-13,-3,13
159,136932,3435,5600,-4689,-5,-1,16
160,136951,3485,5642,-4672,18,1,13
161,136962,3490,5644,-4719,28,2,11
162,136973,3465,5654,-4771,33,4,12
163,136984,3455,5637,-4790,23,5,10
164,136994,3451,5622,-4786,6,12,7
165,137003,3441,5654,-4754,-8,15,4
166,137014,3425,5635,-4709,-10,15,4
167,137023,3452,5644,-4701,-3,10,1
168,137040,3436,5615,-4739,16,8,-2
169,137064,3433,5648,-4770,16,6,-6
170,137079,3435,5639,-4773,9,5,-10
171,137091,3431,5655,-4764,1,5,-10
172,137102,3435,5642,-4741,-2,6,-10
173,137113,3438,5618,-4729,-1,8,-7
174,137123,3436,5580,-4722,0,6,-6
175,137133,3445,5567,-4759,8,4,-6
176,137143,3447,5625,-4803,15,3,-11
177,137153,3431,5632,-4821,8,4,-14
178,137163,3443,5631,-4794,0,5,-8
179,137173,3486,5631,-4761,-3,3,-8
180,137190,3458,5651,-4728,2,-1,-16
181,137202,3447,5648,-4757,3,-3,-14
182,137224,3423,5627,-4753,0,-2,-11
183,137243,3415,5591,-4741,1,-2,-12
184,137256,3417,5586,-4767,2,-2,-15
185,137265,3419,5633,-4795,6,0,-16
186,137276,3405,5646,-4792,3,0,-15
187,137286,3407,5631,-4786,-1,-1,-14
188,137296,3417,5617,-4756,-2,-1,-11
189,137306,3416,5607,-4754,-4,-1,-12
190,137316,3413,5627,-4746,-4,-2,-13
191,137333,3432,5607,-4765,-8,-3,-7
192,137352,3410,5602,-4773,-7,-1,-6
193,137376,3412,5589,-4726,-3,-5,-4
194,137389,3407,5630,-4726,5,-6,-7
195,137405,3371,5631,-4783,5,-3,3
196,137416,3428,5623,-4802,1,-4,6
197,137427,3459,5611,-4804,-8,-3,5
198,137437,3436,5612,-4790,-17,-1,4
199,137448,3398,5612,-4738,-23,0,2
200,137458,3385,5588,-4705,-21,-1,4
201,137469,3402,5616,-4704,-8,-4,6
202,137483,3419,5633,-4762,18,-4,8
203,137501,3423,5619,-4807,19,-5,8
204,137531,3425,5657,-4770,-11,8,1
205,137546,3426,5629,-4718,-10,1,2
206,137558,3421,5629,-4705,-9,6,0
207,137569,3408,5622,-4733,-2,5,1
208,137580,3405,5632,-4762,2,3,2
209,137589,3410,5626,-4802,2,2,3
210,137601,3405,5610,-4788,-3,3,7
211,137612,3425,5594,-4795,-2,-1,6
212,137622,3424,5605,-4809,2,-2,3
213,137633,3392,5593,-4776,-1,1,3
214,137654,3394,5617,-4736,6,-3,9
215,137674,3421,5642,-4791,-3,1,12
216,137691,3417,5633,-4780,-6,0,12
217,137703,3440,5626,-4746,-7,-1,14
218,137712,3424,5636,-4738,-10,-2,11
219,137723,3424,5639,-4725,-5,-2,11
220,137733,3426,5635,-4737,4,-4,12
221,137744,3434,5637,-4761,6,-2,11
222,137754,3423,5626,-4793,4,-1,7
223,137765,3429,5622,-4833,1,0,4
224,137775,3442,5673,-4814,-12,5,0
225,137786,3416,5666,-4759,-29,10,0
226,137796,3400,5625,-4681,-17,2,5
227,137812,3457,5614,-4745,-5,3,7
228,137835,3464,5620,-4799,-2,4,-6
229,137857,3377,5617,-4697,-23,7,-4
230,137862,3393,5601,-4693,-12,8,3
231,137871,3422,5609,-4741,3,6,2
232,137883,3424,5610,-4792,6,8,-2
233,137893,3424,5630,-4807,4,7,-3
234,137904,3418,5653,-4804,-4,8,-1
235,137914,3392,5646,-4754,-13,9,4
236,137925,3393,5610,-4702,-11,6,7
237,137936,3413,5589,-4690,-3,6,9
238,137947,3439,5611,-4726,11,6,7
239,137996,3426,5606,-4709,-6,11,8
240,138006,3425,5602,-4676,6,8,9
241,138018,3402,5620,-4691,21,6,8
242,138030,3439,5606,-4789,31,2,13
243,138041,3445,5686,-4796,35,3,8
244,138051,3428,5629,-4794,26,6,13
245,138062,3470,5595,-4809,19,3,16
246,138072,3492,5631,-4772,14,4,10
247,138088,3470,5672,-4743,12,7,0
248,138107,3411,5639,-4787,16,4,-2
249,138124,3429,5640,-4764,3,6,-3
250,138144,3426,5648,-4764,-2,6,-6
251,138157,3458,5627,-4762,4,5,-6
252,138167,3457,5642,-4769,12,4,-10
253,138178,3443,5653,-4766,14,4,-16
254,138189,3425,5639,-4810,10,4,-20
255,138200,3435,5629,-4805,3,5,-21
256,138211,3438,5631,-4790,-2,4,-25
257,138220,3432,5645,-4800,-5,5,-32
258,138238,3403,5625,-4763,-15,3,-28
259,138255,3429,5609,-4768,-9,1,-29
260,138281,3405,5608,-4781,-10,3,-31
261,138291,3401,5602,-4780,-8,1,-32
262,138305,3426,5583,-4780,-10,2,-31
263,138317,3430,5640,-4802,-18,0,-35
264,138329,3408,5659,-4806,-18,-2,-34
265,138340,3381,5648,-4785,-19,-4,-29
266,138350,3394,5632,-4757,-21,-8,-28
267,138362,3387,5616,-4752,-22,-7,-29
268,138372,3376,5624,-4761,-16,-9,-29
269,138384,3353,5660,-4748,-17,-10,-28
270,138396,3362,5599,-4826,-7,-11,-18
271,138411,3389,5591,-4818,-16,-11,-18
272,138427,3389,5626,-4741,-22,-11,-22
273,138437,3393,5627,-4740,-19,-14,-21
274,138456,3373,5679,-4801,-15,-18,-24
275,138471,3341,5661,-4785,-21,-20,-19
276,138481,3357,5673,-4768,-26,-22,-11
277,138491,3372,5685,-4788,-25,-25,-16
278,138502,3351,5683,-4763,-28,-23,-19
279,138512,3336,5678,-4712,-36,-23,-16
280,138523,3350,5660,-4702,-28,-25,-12
281,138545,3365,5635,-4781,-9,-26,-12
282,138557,3369,5660,-4817,-20,-22,-21
283,138575,3346,5654,-4796,-22,-17,-18
284,138589,3347,5663,-4708,-38,-8,-18
285,138605,3347,5685,-4677,-32,-9,-13
286,138617,3345,5673,-4691,-24,-13,-13
287,138628,3323,5682,-4740,-16,-13,-6
288,138638,3323,5682,-4740,-16,-13,-6
289,138648,3338,5671,-4745,-13,-10,-1
290,138659,3363,5631,-4762,-6,-7,3
291,138670,3334,5626,-4773,-9,-5,-1
292,138684,3301,5657,-4783,-9,-2,-4
293,138706,3288,5682,-4705,-22,3,1
294,138728,3345,5690,-4725,0,-3,8
295,138746,3330,5690,-4785,-7,2,11
296,138759,3333,5681,-4752,-18,4,14
297,138768,3344,5668,-4755,-22,3,16
298,138779,3347,5669,-4781,-21,1,15
299,138790,3322,5664,-4789,-19,2,14
300,138801,3323,5672,-4725,-23,7,19
301,138812,3324,5670,-4699,-26,4,19
302,138822,3305,5659,-4677,-15,1,20
303,138835,3303,5678,-4693,0,-2,24
304,138860,3364,5711,-4775,3,-5,29
305,138876,3373,5713,-4779,-6,-6,24
306,138888,3380,5741,-4752,-10,-4,21
307,138904,3387,5688,-4695,-2,-6,20
308,138914,3374,5706,-4687,2,-5,11
309,138925,3333,5738,-4711,6,-1,5
310,138935,3329,5741,-4724,12,4,7
311,138946,3365,5735,-4737,7,5,9
312,138962,3391,5720,-4743,-2,6,6
313,138971,3406,5715,-4749,-5,9,-1
314,138985,3361,5756,-4720,-13,16,-14
315,138998,3336,5728,-4704,-11,17,-13
316,139013,3357,5664,-4701,-3,18,-10
317,139035,3348,5681,-4771,-8,19,-22
318,139052,3323,5680,-4755,-14,17,-17
319,139064,3345,5688,-4737,-18,15,-12
320,139074,3348,5670,-4735,-15,16,-11
321,139084,3338,5644,-4730,-9,15,-9
322,139094,3320,5654,-4733,-13,14,-11
323,139104,3304,5684,-4714,-15,15,-8
324,139114,3301,5674,-4713,-6,15,-3
325,139124,3320,5663,-4749,5,13,4
326,139134,3347,5678,-4793,4,8,5
327,139144,3349,5662,-4797,-6,8,3
328,139155,3354,5672,-4758,-13,7,5
329,139178,3337,5649,-4651,3,2,12
330,139199,3333,5704,-4748,26,1,14
331,139211,3351,5709,-4799,23,2,17
332,139228,3393,5695,-4764,-11,4,15
333,139238,3373,5710,-4711,-11,7,12
334,139247,3364,5689,-4684,-5,8,11
335,139259,3356,5691,-4679,-1,7,9
336,139268,3368,5693,-4691,7,5,7
337,139288,3341,5713,-4761,2,7,6
338,139300,3340,5703,-4745,-7,7,5
339,139318,3334,5678,-4718,-12,8,10
340,139335,3387,5661,-4710,3,5,9
341,139345,3378,5657,-4736,7,6,8
342,139356,3380,5677,-4756,8,8,6
343,139365,3380,5683,-4775,2,8,4
344,139377,3383,5697,-4758,-11,11,5
345,139386,3373,5672,-4714,-17,12,8
346,139398,3377,5661,-4688,-12,10,11
347,139407,3376,5668,-4705,-6,9,10
348,139419,3362,5660,-4710,2,7,10
349,139428,3355,5690,-4719,6,5,11
350,139440,3328,5677,-4758,7,8,12
351,139453,3356,5685,-4741,1,10,12
352,139479,3378,5675,-4730,-3,9,11
353,139492,3391,5703,-4730,-1,6,8
354,139506,3379,5684,-4725,3,4,9
355,139516,3383,5681,-4742,2,3,9
356,139525,3387,5668,-4725,0,2,7
357,139537,3394,5663,-4705,0,2,8
358,139546,3377,5672,-4705,-1,5,9
359,139559,3355,5697,-4726,2,3,6
360,139571,3361,5720,-4754,2,4,4
361,139589,3380,5678,-4734,-5,3,7
362,139620,3396,5697,-4720,-8,3,-2
363,139640,3384,5679,-4706,-4,4,-1
364,139653,3355,5682,-4732,-4,4,-1
365,139668,3355,5699,-4750,-9,5,-2
366,139678,3369,5684,-4741,-13,5,0
367,139688,3410,5687,-4733,-9,3,2
368,139698,3444,5709,-4741,-3,1,0
369,139712,3428,5710,-4746,-4,3,-4
370,139723,3401,5708,-4758,-11,1,-7
371,139740,3353,5718,-4693,-17,1,-12
372,139770,3348,5677,-4705,-17,3,-10
373,139797,3386,5718,-4746,0,4,-12
374,139808,3390,5675,-4743,-3,6,-10
375,139819,3415,5680,-4737,-11,8,-12
376,139829,3407,5683,-4734,-16,11,-17
377,139839,3384,5669,-4725,-17,9,-16
378,139849,3361,5663,-4704,-21,9,-14
379,139859,3336,5660,-4684,-21,8,-10
380,139870,3337,5647,-4686,-16,8,-5
381,139880,3336,5662,-4666,-9,7,-3
382,139893,3330,5667,-4686,0,4,-2
383,139919,3349,5695,-4739,-2,5,6
384,139939,3377,5680,-4722,-14,4,9
385,139951,3406,5673,-4715,-12,1,9
386,139971,3384,5667,-4666,-5,4,13
387,139983,3357,5670,-4646,3,3,13
388,139993,3334,5683,-4661,14,2,16
389,140003,3344,5709,-4711,20,1,16
390,140012,3359,5723,-4749,20,1,14
391,140024,3358,5725,-4774,13,4,13
392,140033,3367,5704,-4762,-2,10,15
393,140056,3401,5703,-4666,-22,10,13
394,140079,3373,5712,-4692,16,6,7
395,140096,3346,5721,-4715,15,9,5
396,140106,3361,5702,-4726,15,9,10
397,140117,3381,5678,-4742,10,8,12
398,140128,3380,5694,-4741,0,9,8
399,140138,3378,5698,-4729,-7,10,7
400,140148,3382,5681,-4709,-5,10,8
401,140158,3391,5680,-4705,-3,11,10
402,140168,3396,5684,-4694,3,10,11
403,140185,3391,5678,-4703,12,9,13
404,140220,3370,5693,-4747,8,9,10
405,140238,3371,5701,-4705,-7,10,9
406,140252,3409,5662,-4697,3,8,10
407,140263,3426,5679,-4693,10,9,8
408,140273,3419,5705,-4699,9,10,4
409,140285,3390,5689,-4753,8,7,2
410,140295,3372,5681,-4778,4,7,2
411,140305,3376,5664,-4748,-6,11,6
412,140316,3390,5679,-4696,-11,15,3
413,140326,3380,5660,-4658,-6,12,4
414,140336,3400,5640,-4652,7,8,6
415,140345,3407,5657,-4702,22,6,3
416,140375,3397,5710,-4775,9,7,2
417,140400,3406,5688,-4726,-6,9,2
418,140413,3389,5663,-4684,-5,10,0
419,140422,3382,5664,-4693,2,4,-1
420,140432,3397,5682,-4714,6,3,-1
421,140442,3378,5675,-4748,4,5,-3
422,140452,3371,5651,-4734,2,4,-2
423,140467,3413,5665,-4679,-4,5,1
424,140477,3410,5664,-4685,10,5,1
425,140491,3396,5699,-4735,14,2,-5
426,140510,3405,5703,-4759,0,6,-3
427,140539,3435,5688,-4702,-11,5,-4
428,140552,3398,5666,-4689,-8,6,-3
429,140561,3374,5674,-4689,0,7,-1
430,140574,3388,5671,-4703,3,3,2
431,140584,3379,5674,-4722,13,3,-3
432,140596,3372,5677,-4750,2,5,-7
433,140607,3407,5680,-4743,1,8,-5
434,140621,3429,5672,-4720,-6,11,-4
435,140634,3426,5656,-4708,-4,13,-6
436,140649,3403,5679,-4681,2,14,-7
437,140670,3378,5646,-4705,9,12,0
438,140694,3369,5663,-4713,10,12,-2
439,140706,3362,5671,-4714,11,13,1
440,140718,3421,5641,-4737,6,13,6
441,140728,3422,5668,-4723,-3,14,4
442,140740,3404,5666,-4733,-1,13,4
443,140750,3385,5663,-4731,4,11,5
444,140762,3371,5647,-4730,3,9,7
445,140774,3381,5655,-4720,2,9,10
446,140787,3394,5652,-4701,7,9,11
447,140798,3399,5645,-4711,11,6,11
448,140824,3438,5663,-4755,9,4,13
449,140846,3402,5658,-4721,-1,4,9
450,140859,3394,5661,-4696,-1,6,12
451,140870,3401,5656,-4696,10,4,12
452,140880,3385,5664,-4704,13,5,10
453,140891,3395,5625,-4731,17,3,13
454,140903,3419,5630,-4752,18,0,16
455,140913,3449,5650,-4771,18,1,13
456,140923,3427,5660,-4755,15,6,11
457,140935,3418,5627,-4740,10,6,12
458,140947,3445,5630,-4731,10,4,14
459,140985,3407,5660,-4756,13,2,14
460,141000,3414,5650,-4762,7,0,11
461,141012,3422,5648,-4748,1,3,6
462,141029,3417,5655,-4734,2,2,7
463,141041,3405,5640,-4741,8,1,8
464,141053,3400,5655,-4754,13,2,5
465,141063,3422,5628,-4777,6,1,8
466,141075,3450,5619,-4777,-3,0,5
467,141089,3440,5616,-4742,-7,0,4
468,141107,3426,5624,-4695,-2,3,6
469,141124,3445,5643,-4742,15,1,9
470,141148,3394,5707,-4781,12,-1,6
471,141160,3381,5714,-4786,4,-3,5
472,141170,3410,5701,-4753,-4,-4,6
473,141182,3422,5654,-4734,-4,-4,8
474,141192,3446,5628,-4716,4,-5,7
475,141202,3460,5628,-4733,10,-8,1
476,141214,3430,5628,-4773,14,-8,-6
477,141224,3386,5659,-4797,9,-6,-10
478,141247,3440,5607,-4719,-2,0,-4
479,141269,3408,5657,-4724,1,-1,-11
480,141285,3418,5632,-4738,7,-1,-3
481,141299,3439,5618,-4767,4,-5,1
482,141309,3394,5621,-4750,1,-3,0
483,141322,3371,5592,-4711,4,-4,4
484,141332,3398,5599,-4692,9,-6,8
485,141344,3403,5611,-4720,15,-3,5
486,141354,3380,5621,-4765,24,-1,6
487,141365,3367,5651,-4823,22,-2,7
488,141374,3369,5639,-4814,7,-3,13
489,141389,3479,5647,-4728,-7,-3,17
490,141403,3484,5664,-4714,0,-4,11
491,141416,3444,5645,-4701,10,-1,7
492,141446,3420,5672,-4768,14,2,-1
493,141455,3399,5677,-4763,3,6,-5
494,141466,3404,5650,-4737,0,7,-4
495,141476,3425,5631,-4729,1,8,-1
496,141487,3447,5635,-4728,4,10,-2
497,141496,3466,5661,-4751,10,13,-7
498,141507,3455,5636,-4782,15,13,-9
499,141516,3470,5626,-4780,16,12,-11
500,141527,3448,5621,-4779,14,13,-16
501,141536,3420,5629,-4775,10,14,-21
502,141552,3371,5592,-4751,8,15,-18
503,141569,3395,5582,-4735,6,13,-13
504,141597,3395,5610,-4773,22,10,-11
505,141616,3411,5641,-4771,30,6,-6
506,141630,3392,5593,-4804,23,8,-1
507,141640,3380,5593,-4809,21,11,1
508,141650,3378,5595,-4775,19,8,4
509,141662,3413,5646,-4780,32,2,5
510,141672,3398,5653,-4678,44,-1,8
511,141688,3426,5538,-4745,53,-6,19
512,141718,3362,5659,-4871,24,2,-7
513,141735,3441,5641,-4818,-1,5,-3
514,141746,3462,5639,-4772,-12,11,-7
515,141756,3444,5621,-4712,-20,14,-11
516,141767,3425,5639,-4709,-12,8,-14
517,141776,3425,5641,-4744,4,6,-16
518,141787,3426,5631,-4795,14,8,-14
519,141796,3430,5613,-4830,17,9,-13
520,141807,3450,5595,-4862,11,8,-15
521,141818,3427,5603,-4834,-2,11,-23
522,141828,3386,5599,-4811,-16,16,-26
523,141848,3382,5627,-4774,-16,16,-24
524,141867,3382,5593,-4744,-10,15,-15
525,141890,3421,5598,-4833,-5,11,-15
526,141914,3378,5582,-4808,-15,13,-12
527,141924,3357,5569,-4773,-22,16,-9
528,141937,3391,5555,-4763,-5,13,-3
529,141950,3405,5571,-4798,-1,12,0
530,141969,3401,5590,-4806,1,15,8
531,141980,3413,5581,-4799,-5,14,13
532,141991,3423,5592,-4782,-8,12,15
533,142007,3368,5580,-4755,-5,15,19
534,142019,3383,5575,-4736,0,15,22
535,142041,3426,5601,-4796,5,17,27
536,142054,3410,5620,-4809,-8,20,26
537,142064,3387,5625,-4767,-17,24,27
538,142073,3400,5600,-4744,-18,23,33
539,142084,3435,5585,-4730,-12,22,35
540,142093,3467,5632,-4717,-2,22,32
541,142104,3466,5636,-4727,8,23,27
542,142113,3465,5642,-4729,15,25,24
543,142124,3489,5672,-4748,15,23,21
544,142134,3495,5661,-4759,10,26,15
545,142149,3471,5691,-4812,3,30,1
546,142176,3475,5661,-4785,-19,28,-5
547,142188,3494,5635,-4745,-15,29,-11
548,142198,3493,5613,-4775,-5,29,-16
549,142209,3447,5642,-4782,5,22,-31
550,142220,3415,5639,-4791,1,22,-31
551,142230,3418,5624,-4793,-5,22,-28
552,142241,3423,5628,-4794,-11,21,-31
553,142251,3419,5617,-4783,-22,23,-31
554,142262,3413,5599,-4761,-30,20,-30
555,142272,3424,5590,-4766,-26,18,-27
556,142283,3412,5581,-4753,-20,16,-24
557,142304,3408,5575,-4804,-7,12,-18
558,142331,3421,5570,-4778,-5,4,-8
559,142353,3392,5593,-4787,-11,1,-2
560,142367,3399,5597,-4761,-11,-4,3
561,142377,3422,5618,-4754,-10,-7,8
562,142388,3422,5609,-4756,-4,-9,10
563,142399,3406,5632,-4761,-1,-9,14
564,142409,3400,5598,-4754,-2,-11,16
565,142420,3421,5580,-4781,0,-11,17
566,142431,3445,5615,-4811,-2,-11,14
567,142446,3430,5630,-4818,-25,-10,11
568,142490,3434,5619,-4682,1,-16,17
569,142509,3442,5638,-4800,6,-16,11
570,142521,3441,5643,-4816,-9,-11,10
571,142532,3469,5633,-4786,-28,-7,12
572,142543,3477,5631,-4745,-35,-5,11
573,142553,3446,5616,-4677,-32,-3,7
574,142564,3429,5627,-4673,-4,-4,3
575,142574,3440,5661,-4732,10,-7,2
576,142592,3431,5692,-4777,6,-4,1
577,142618,3486,5629,-4737,-20,4,3
578,142643,3456,5651,-4701,-18,5,-6
579,142654,3426,5631,-4729,-15,4,-7
580,142669,3423,5620,-4751,-12,3,-6
581,142680,3404,5628,-4768,-11,2,-5
582,142689,3390,5647,-4763,-13,2,-6
583,142700,3405,5633,-4715,-13,0,-3
584,142710,3427,5612,-4698,-4,-3,3
585,142722,3440,5634,-4749,3,-3,4
586,142737,3441,5624,-4752,-6,2,3
587,142765,3473,5625,-4744,-12,0,1
588,142786,3410,5650,-4723,-15,5,0
589,142800,3414,5641,-4716,-10,-2,6
590,142811,3399,5617,-4719,-5,-3,6
591,142822,3407,5632,-4721,2,-2,8
592,142833,3431,5645,-4754,9,-3,7
593,142844,3433,5637,-4765,8,-3,5
594,142856,3462,5646,-4756,2,0,7
595,142867,3482,5643,-4761,-4,-2,4
596,142888,3430,5652,-4689,-20,2,-3
597,142906,3436,5642,-4708,5,-2,3
598,142939,3397,5638,-4798,3,-1,-1
599,142949,3389,5649,-4751,-13,2,-4
600,142962,3393,5649,-4719,-15,4,-1
601,142972,3434,5613,-4720,-14,3,1
602,142984,3443,5620,-4735,-8,0,0
603,142994,3451,5646,-4750,-1,2,1
604,143005,3475,5628,-4761,-2,-1,4
605,143015,3482,5625,-4754,-4,-4,5
606,143026,3477,5626,-4741,-5,-3,4
607,143039,3435,5636,-4719,-3,-3,2
608,143049,3404,5634,-4708,0,-3,1
609,143071,3383,5669,-4756,1,-1,3
610,143100,3451,5602,-4725,-9,3,10
611,143120,3439,5643,-4727,1,2,4
612,143132,3416,5617,-4714,4,2,8
613,143143,3463,5622,-4730,12,2,8
614,143153,3457,5646,-4736,6,2,3
615,143164,3416,5668,-4745,3,2,4
616,143183,3437,5620,-4727,-1,3,7
617,143196,3441,5637,-4734,-1,5,6
618,143210,3438,5643,-4749,1,4,3
619,143237,3417,5624,-4718,3,6,6
620,143251,3421,5617,-4738,8,5,6
621,143260,3446,5631,-4773,7,4,5
622,143270,3437,5648,-4774,-2,4,3
623,143282,3424,5641,-4746,-5,4,3
624,143292,3421,5620,-4720,-4,3,4
625,143303,3436,5608,-4698,1,3,5
626,143313,3447,5625,-4689,10,4,7
627,143332,3444,5631,-4780,23,3,6
628,143356,3445,5645,-4778,-13,7,2
629,143384,3423,5625,-4691,-7,10,4
630,143401,3447,5622,-4721,15,6,5
631,143412,3455,5639,-4766,19,5,3
632,143424,3429,5647,-4802,13,4,3
633,143435,3417,5633,-4804,3,5,5
634,143446,3450,5620,-4775,-6,5,7
635,143458,3458,5616,-4704,-11,7,1
636,143472,3421,5607,-4713,-2,3,-1
637,143489,3409,5642,-4761,14,5,3
638,143511,3441,5622,-4769,10,7,4
639,143535,3456,5623,-4733,-4,3,2
640,143552,3441,5628,-4734,0,6,2
641,143564,3441,5607,-4713,3,4,3
642,143573,3462,5613,-4716,6,4,2
643,143587,3462,5638,-4751,10,5,1
644,143602,3453,5612,-4782,10,5,3
645,143614,3466,5631,-4769,2,5,1
646,143628,3449,5643,-4770,-4,9,-3
647,143642,3450,5623,-4719,-3,8,1
648,143665,3416,5608,-4721,3,6,-2
649,143689,3448,5645,-4790,13,5,-1
650,143707,3415,5612,-4770,0,8,-2
651,143720,3440,5611,-4749,-3,6,-2
652,143733,3443,5616,-4790,7,7,1
653,143745,3457,5618,-4781,1,4,1
654,143758,3452,5617,-4747,-4,2,0
655,143771,3456,5598,-4707,1,5,5
656,143783,3451,5611,-4721,3,3,3
657,143806,3409,5617,-4789,10,5,1
658,143826,3462,5615,-4815,-2,1,6
659,143837,3483,5651,-4807,-8,0,4
660,143847,3456,5645,-4747,-9,0,3
661,143861,3443,5616,-4699,-5,-2,5
662,143882,3430,5621,-4725,11,-1,-2
663,143900,3424,5659,-4825,1,2,0
664,143913,3445,5629,-4819,-15,6,2
665,143925,3475,5612,-4715,-21,6,0
666,143939,3461,5596,-4689,-10,5,-3
667,143971,3428,5616,-4787,2,4,-6
668,144004,3434,5619,-4744,-16,7,-2
669,144015,3437,5613,-4725,-12,5,-4
670,144027,3434,5599,-4747,-6,3,-4
671,144038,3429,5621,-4777,1,0,-4
672,144052,3422,5620,-4773,1,0,-2
673,144065,3402,5594,-4741,-7,3,3
674,144077,3461,5612,-4762,-9,2,2
675,144093,3447,5638,-4784,-10,0,1
676,144138,3436,5637,-4737,0,-1,3
677,144159,3418,5610,-4772,-2,3,11
678,144178,3440,5644,-4745,-17,3,3
679,144189,3400,5637,-4738,-13,2,2
680,144201,3416,5589,-4725,-8,-1,9
681,144214,3454,5649,-4721,0,-1,6
682,144227,3457,5642,-4715,10,0,4
683,144239,3491,5622,-4795,15,-3,0
684,144253,3472,5652,-4827,1,-1,-8
685,144286,3419,5627,-4696,-24,3,-4
686,144311,3426,5623,-4726,11,-4,-1
687,144332,3449,5625,-4820,6,-1,-1
688,144346,3469,5622,-4791,-4,0,0
689,144357,3471,5610,-4760,-16,0,-1
690,144370,3430,5627,-4682,-9,5,-3
691,144381,3428,5646,-4693,0,2,-3
692,144404,3421,5638,-4748,10,-1,0
693,144437,3449,5611,-4762,-11,4,3
694,144456,3435,5603,-4705,-11,7,-2
695,144472,3412,5620,-4696,-1,5,0
696,144482,3419,5609,-4765,12,2,2
697,144495,3430,5623,-4782,10,3,4
698,144508,3440,5640,-4788,3,5,3
699,144520,3421,5599,-4734,-5,7,6
700,144533,3460,5606,-4731,4,4,10
701,144559,3435,5632,-4757,8,8,5
702,144583,3443,5625,-4755,2,5,9
703,144605,3438,5609,-4740,5,4,11
704,144618,3425,5620,-4725,6,4,10
705,144632,3442,5611,-4733,11,5,11
706,144642,3461,5628,-4734,15,2,8
707,144654,3427,5638,-4772,3,7,9
708,144668,3474,5614,-4773,0,7,10
709,144678,3501,5614,-4779,-1,8,11
710,144699,3472,5647,-4754,-2,6,2
711,144730,3426,5621,-4717,13,7,2
712,144752,3431,5637,-4759,9,11,-1
713,144765,3463,5641,-4777,7,11,0
714,144775,3504,5624,-4788,3,11,0
715,144785,3497,5629,-4783,-1,11,-6
716,144798,3460,5609,-4728,-8,13,-7
717,144811,3442,5603,-4713,0,11,-6
718,144824,3440,5612,-4730,6,10,-5
719,144837,3420,5616,-4781,-3,10,-8
720,144851,3428,5596,-4785,-6,9,-3
721,144896,3466,5594,-4764,13,5,-3
722,144922,3443,5604,-4758,-7,9,-7
723,144935,3457,5610,-4754,-9,7,-5
724,144945,3464,5608,-4738,-5,7,-4
725,144958,3429,5637,-4729,5,4,-3
726,144968,3426,5652,-4767,11,4,-4
727,144977,3426,5652,-4767,11,4,-4
728,144996,3459,5618,-4799,5,2,-1
729,145015,3461,5632,-4752,-10,6,-10
730,145045,3457,5577,-4745,-1,4,-1
731,145064,3407,5641,-4749,6,6,-7
732,145073,3415,5643,-4779,11,3,-1
733,145087,3453,5606,-4811,8,2,2
734,145101,3458,5625,-4772,-14,6,-5
735,145110,3434,5609,-4739,-17,7,-5
736,145125,3429,5608,-4736,-16,6,-4
737,145134,3445,5595,-4720,-13,5,-1
738,145147,3430,5606,-4742,-5,4,-1
739,145165,3414,5616,-4726,0,1,0
740,145198,3457,5637,-4789,5,2,1
741,145212,3472,5614,-4780,-10,0,0
742,145230,3450,5601,-4751,-15,4,0
743,145240,3453,5607,-4727,-16,5,0
744,145250,3451,5599,-4725,-11,4,2
745,145260,3432,5610,-4709,-5,4,2
746,145270,3417,5610,-4712,3,2,3
747,145280,3413,5617,-4744,11,1,6
748,145299,3446,5613,-4804,10,1,9
749,145341,3431,5594,-4714,-4,3,9
750,145359,3466,5609,-4732,9,2,10
751,145371,3448,5607,-4764,10,1,9
752,145380,3439,5620,-4796,9,1,8
753,145393,3411,5631,-4788,0,2,9
754,145405,3422,5610,-4756,-8,4,13
755,145414,3456,5580,-4734,3,3,14
756,145426,3477,5571,-4752,7,3,13
757,145438,3479,5600,-4786,4,2,9
758,145454,3451,5650,-4797,1,2,7
759,145468,3449,5604,-4761,-9,3,13
760,145493,3453,5626,-4702,-10,2,9
761,145513,3423,5610,-4734,7,-1,11
762,145523,3438,5635,-4777,15,-1,13
763,145532,3452,5622,-4811,4,2,15
764,145546,3493,5602,-4813,-9,0,15
765,145555,3502,5597,-4756,-12,0,12
766,145569,3487,5603,-4708,0,2,3
767,145578,3469,5620,-4734,10,0,3
768,145610,3420,5654,-4749,3,2,2
769,145640,3509,5601,-4762,1,5,2
770,145660,3469,5623,-4792,-7,8,-7
771,145674,3438,5615,-4762,-12,11,-7
772,145686,3438,5596,-4702,-10,8,-4
773,145697,3441,5598,-4704,-5,8,-2
774,145709,3424,5607,-4758,1,3,-4
775,145720,3399,5585,-4751,-4,4,0
776,145734,3444,5581,-4757,-4,4,6
777,145749,3501,5610,-4831,4,2,2
778,145781,3419,5559,-4676,-12,3,7
779,145812,3444,5612,-4788,11,0,9
780,145820,3444,5612,-4788,11,0,9
781,145831,3451,5610,-4756,2,4,12
782,145840,3477,5620,-4757,5,3,10
783,145854,3479,5625,-4761,6,3,7
784,145864,3464,5628,-4757,5,4,6
785,145873,3453,5613,-4743,0,3,6
786,145887,3467,5604,-4746,-5,5,4
787,145914,3474,5608,-4729,2,7,2
788,145941,3469,5590,-4766,11,9,4
789,145955,3435,5619,-4783,8,9,1
790,145973,3479,5590,-4786,-5,8,7
791,145989,3475,5597,-4777,-11,8,2
792,145998,3440,5588,-4741,-9,7,1
793,146013,3442,5582,-4733,2,5,8
794,146023,3442,5582,-4733,2,5,8
795,146032,3472,5581,-4756,11,3,8
796,146050,3454,5600,-4789,13,3,9
797,146087,3496,5587,-4736,-9,7,8
798,146108,3468,5579,-4722,2,6,5
799,146120,3464,5594,-4733,6,7,8
800,146132,3467,5589,-4756,6,6,8
801,146142,3459,5592,-4766,8,4,6
802,146151,3449,5598,-4753,9,5,6
803,146165,3456,5597,-4755,7,6,5
804,146177,3494,5619,-4794,7,7,2
805,146196,3498,5608,-4774,-3,8,3
806,146214,3504,5598,-4756,-8,6,-1
807,146244,3461,5597,-4736,0,5,-2
808,146262,3436,5592,-4739,3,5,-1
809,146273,3463,5597,-4784,7,3,0
810,146286,3481,5608,-4815,9,3,0
811,146297,3493,5578,-4773,-6,8,1
812,146311,3494,5547,-4741,-7,9,0
813,146325,3476,5560,-4726,-2,6,-3
814,146346,3441,5597,-4790,5,7,-3
815,146374,3480,5559,-4753,5,0,7
816,146400,3481,5624,-4852,17,2,-1
817,146413,3459,5600,-4823,3,4,-2
818,146427,3451,5599,-4769,-10,3,-1
819,146437,3453,5591,-4736,-17,5,0
820,146448,3457,5579,-4702,-13,7,3
821,146457,3470,5575,-4690,-2,4,7
822,146471,3486,5568,-4781,17,3,8
823,146481,3491,5568,-4808,13,5,5
824,146495,3479,5586,-4830,10,7,4
825,146510,3466,5586,-4785,-6,10,5
826,146540,3479,5565,-4715,-6,9,6
827,146558,3466,5550,-4733,0,12,8
828,146569,3475,5562,-4776,9,10,12
829,146580,3473,5578,-4772,11,7,14
830,146591,3447,5564,-4768,8,9,15
831,146603,3472,5579,-4757,7,7,17
832,146614,3490,5582,-4756,10,8,15
833,146626,3512,5558,-4754,13,9,18
834,146636,3526,5563,-4784,10,8,20
835,146647,3557,5573,-4789,5,7,16
836,146662,3509,5578,-4767,5,10,13
837,146691,3480,5587,-4727,8,8,11
838,146710,3474,5581,-4764,22,8,13
839,146723,3477,5601,-4816,16,9,8
840,146736,3495,5584,-4808,1,13,8
841,146750,3515,5540,-4814,-4,12,9
842,146762,3545,5548,-4757,-8,12,5
843,146776,3483,5511,-4717,8,6,6
844,146791,3540,5506,-4837,29,0,9
845,146802,3516,5603,-4832,13,8,-2
846,146824,3514,5572,-4751,-3,5,9
847,146862,3516,5555,-4791,11,6,3
848,146876,3519,5568,-4792,5,3,1
849,146887,3504,5560,-4802,-1,9,3
850,146899,3513,5549,-4769,-6,8,1
851,146914,3495,5556,-4754,-7,3,-2
852,146926,3482,5550,-4739,8,4,3
853,146958,3510,5588,-4840,2,6,-4
854,147010,3460,5573,-4762,-12,4,-2
855,147021,3472,5542,-4737,-5,0,5
856,147036,3511,5532,-4748,8,-2,9
857,147048,3510,5576,-4806,7,-1,0
858,147061,3511,5590,-4801,8,1,2
859,147075,3524,5586,-4815,5,1,3
860,147098,3535,5543,-4762,-14,3,1
861,147121,3478,5551,-4708,-7,4,-2
862,147159,3473,5566,-4814,14,3,1
863,147173,3518,5595,-4820,-2,2,3
864,147186,3548,5562,-4789,-8,4,5
865,147198,3579,5533,-4763,-13,4,3
866,147212,3512,5566,-4743,-2,3,-5
867,147226,3465,5567,-4739,4,3,-4
868,147242,3472,5550,-4737,4,8,4
869,147276,3523,5567,-4809,1,10,6
870,147301,3577,5529,-4768,4,9,2
871,147317,3593,5543,-4724,3,9,-1
872,147330,3585,5582,-4769,7,6,-8
873,147342,3468,5634,-4864,-5,9,-16
874,147356,3408,5606,-4832,-25,9,-15
875,147369,3404,5559,-4734,-36,9,-12
876,147384,3430,5556,-4740,-12,3,-11
877,147417,3542,5548,-4832,-5,-3,-9
878,147444,3546,5560,-4721,-20,0,-17
879,147461,3501,5530,-4724,-16,2,-17
880,147475,3464,5568,-4729,-9,5,-13
881,147487,3472,5536,-4751,-6,5,-6
882,147501,3481,5549,-4780,-3,3,-3
883,147514,3477,5554,-4797,-7,4,-4
884,147534,3504,5530,-4757,-3,8,5
885,147554,3531,5555,-4740,-4,5,6
886,147588,3475,5571,-4717,4,4,11
887,147615,3515,5550,-4769,23,3,12
888,147628,3460,5598,-4821,12,8,7
889,147641,3494,5558,-4809,4,8,13
890,147655,3539,5546,-4793,-3,8,15
891,147669,3509,5557,-4729,-6,13,9
892,147683,3508,5577,-4701,4,9,9
893,147713,3496,5589,-4780,24,6,13
894,147745,3531,5569,-4831,-1,6,11
895,147756,3536,5574,-4793,-10,8,9
896,147770,3508,5557,-4729,-8,9,8
897,147784,3522,5533,-4713,-1,8,10
898,147798,3478,5561,-4751,13,6,5
899,147812,3466,5594,-4771,12,6,8
900,147826,3511,5577,-4820,10,5,11
901,147855,3554,5543,-4801,-2,5,5
902,147885,3509,5547,-4760,2,5,-1
903,147905,3487,5585,-4793,-1,4,-4
904,147920,3476,5577,-4787,-11,4,-2
905,147933,3478,5545,-4768,-3,0,-1
906,147946,3483,5539,-4769,-4,-1,-2
907,147960,3493,5559,-4782,0,-2,-3
908,147973,3528,5518,-4801,7,-1,0
909,147989,3596,5536,-4806,7,-2,1
910,148011,3509,5551,-4748,-4,2,-9
911,148046,3528,5596,-4785,11,4,-9
912,148070,3539,5596,-4805,5,5,-13
913,148081,3582,5595,-4784,0,7,-14
914,148098,3553,5592,-4773,-8,12,-27
915,148112,3500,5599,-4759,-11,13,-33
916,148126,3432,5539,-4748,-18,12,-31
917,148145,3416,5517,-4772,-7,10,-25
918,148176,3510,5517,-4839,7,5,-12
919,148201,3543,5508,-4818,5,3,-5
920,148212,3537,5519,-4777,-1,1,-2
921,148221,3526,5536,-4746,1,0,-2
922,148234,3493,5566,-4757,6,2,3
923,148247,3446,5584,-4797,7,-2,5
924,148260,3428,5588,-4814,-1,-3,5
925,148280,3365,5568,-4752,-11,-3,7
926,148291,3405,5558,-4756,-3,-5,10
927,148301,3459,5557,-4760,4,-7,11
928,148314,3509,5578,-4774,7,-4,9
929,148349,3635,5566,-4751,1,8,-1
930,148369,3518,5569,-4786,-5,11,-10
931,148384,3486,5547,-4774,-7,15,-5
932,148399,3514,5572,-4829,-3,15,-2
933,148413,3486,5610,-4847,-3,13,-7
934,148427,3435,5537,-4824,-18,9,2
935,148444,3427,5533,-4782,-26,6,0
936,148461,3381,5564,-4749,-16,3,4
937,148491,3514,5560,-4747,7,-8,12
938,148517,3540,5605,-4816,20,-9,14
939,148530,3580,5595,-4809,-2,-6,10
940,148545,3571,5601,-4771,-10,-4,0
941,148559,3552,5600,-4750,-10,-2,-7
942,148575,3512,5597,-4740,4,1,-10
943,148595,3480,5609,-4790,8,0,-16
944,148616,3452,5615,-4816,-3,-2,-23
945,148625,3471,5611,-4799,-9,-3,-24
946,148640,3505,5570,-4785,0,-6,-30
947,148652,3507,5559,-4786,0,-8,-34
948,148674,3493,5579,-4804,0,-12,-34
949,148690,3480,5584,-4811,-1,-12,-35
950,148706,3465,5547,-4763,0,-14,-30
951,148720,3453,5567,-4768,7,-16,-33
952,148734,3428,5590,-4818,12,-16,-30
953,148759,3490,5577,-4818,7,-19,-27
954,148797,3446,5605,-4817,3,-22,-43
955,148814,3384,5612,-4705,3,-23,-42
956,148827,3378,5618,-4731,12,-22,-47
957,148841,3371,5630,-4781,18,-21,-49
958,148856,3401,5663,-4831,2,-13,-52
959,148869,3429,5647,-4828,-4,-10,-52
960,148891,3493,5586,-4773,-16,-5,-61
961,148919,3377,5609,-4819,-5,0,-70
962,148955,3309,5582,-4800,-17,2,-65
963,148966,3298,5594,-4793,-19,2,-57
964,148982,3308,5592,-4789,-16,2,-50
965,149002,3316,5560,-4774,-20,6,-39
966,149018,3350,5547,-4795,-10,4,-30
967,149027,3359,5572,-4841,0,1,-25
968,149055,3324,5573,-4770,-13,3,-13
969,149093,3284,5586,-4814,7,9,12
970,149114,3379,5593,-4846,0,13,24
971,149126,3406,5588,-4832,-8,13,26
972,149140,3359,5594,-4747,5,10,26
973,149154,3340,5606,-4729,19,8,31
974,149167,3356,5605,-4763,32,6,36
975,149179,3352,5663,-4872,21,6,35
976,149205,3354,5668,-4838,-7,7,36
977,149222,3373,5633,-4740,0,12,33
978,149242,3406,5650,-4778,16,8,26
979,149260,3418,5649,-4808,0,15,20
980,149273,3427,5629,-4791,-11,20,21
981,149298,3449,5622,-4782,-8,23,16
982,149310,3424,5609,-4809,7,23,11
983,149322,3411,5618,-4824,11,21,8
984,149334,3405,5636,-4852,9,22,4
985,149348,3404,5641,-4819,5,22,4
986,149396,3354,5617,-4792,-10,20,-1
987,149420,3391,5587,-4808,-5,15,2
988,149432,3423,5592,-4820,7,11,3
989,149443,3406,5574,-4793,7,14,5
990,149455,3396,5554,-4773,4,14,7
991,149467,3414,5576,-4788,4,12,6
992,149479,3398,5594,-4817,5,14,6
993,149517,3419,5601,-4790,-2,9,14
994,149542,3369,5609,-4795,9,3,19
995,149553,3371,5609,-4814,-1,3,17
996,149564,3375,5606,-4822,-12,7,16
997,149577,3381,5600,-4811,-22,9,17
998,149590,3404,5591,-4796,-26,7,18
999,149602,3428,5565,-4785,-23,6,20
1000,149621,3434,5591,-4774,-1,2,24
1001,149635,3445,5584,-4772,14,-2,25
1002,149649,3455,5595,-4792,17,-2,23
1003,149681,3462,5638,-4782,-10,8,15
1004,149712,3458,5614,-4736,-10,8,12
1005,149722,3428,5591,-4764,-1,8,9
1006,149736,3403,5616,-4775,12,6,10
1007,149749,3414,5597,-4780,11,7,10
1008,149761,3435,5578,-4812,12,9,9
1009,149775,3473,5601,-4844,8,10,8
1010,149792,3458,5606,-4775,-9,12,5
1011,149812,3473,5588,-4717,2,10,4
1012,149833,3467,5590,-4792,24,9,4
1013,149864,3436,5581,-4835,-2,10,5
1014,149881,3451,5582,-4792,-9,11,-3
1015,149894,3432,5616,-4775,-4,9,-4
1016,149907,3407,5589,-4787,0,8,-1
1017,149919,3423,5592,-4806,1,4,0
1018,149937,3435,5580,-4827,-6,6,2
1019,149950,3451,5575,-4788,-15,1,0
1020,149971,3457,5582,-4773,-10,1,0
1021,149995,3481,5584,-4799,5,0,1
1022,150037,3455,5606,-4765,-12,5,-5
1023,150051,3461,5610,-4759,-13,7,-3
1024,150063,3453,5617,-4775,-13,8,-6
1025,150077,3446,5589,-4793,-12,8,-9
1026,150097,3416,5600,-4811,-14,4,-13
1027,150114,3422,5580,-4764,-13,3,-9
1028,150129,3432,5560,-4776,-6,3,-5
1029,150142,3482,5571,-4805,-1,-1,-9
1030,150156,3461,5584,-4825,-5,1,-10
1031,150168,3440,5608,-4808,-12,2,-8
1032,150182,3435,5616,-4766,-18,2,-5
1033,150195,3440,5589,-4745,-10,2,0
1034,150208,3438,5582,-4744,-7,3,-4
1035,150217,3426,5598,-4801,-5,1,-7
1036,150234,3414,5596,-4812,-12,-2,-3
1037,150262,3433,5594,-4736,-9,-2,3
1038,150296,3409,5607,-4816,4,2,-3
1039,150313,3428,5617,-4804,-7,2,3
1040,150325,3480,5584,-4786,-7,1,6
1041,150341,3451,5604,-4797,2,-3,3
1042,150351,3424,5612,-4797,3,-5,2
1043,150366,3377,5596,-4722,6,-3,4
1044,150375,3388,5599,-4741,7,-2,6
1045,150396,3459,5630,-4814,5,3,5
1046,150411,3471,5659,-4818,-4,5,4
1047,150432,3482,5576,-4757,-15,6,6
1048,150446,3442,5590,-4763,-3,6,-3
1049,150460,3411,5600,-4762,0,7,-4
1050,150503,3436,5583,-4796,-10,7,0
1051,150517,3439,5605,-4773,-12,7,0
1052,150531,3429,5606,-4760,-12,3,1
1053,150546,3419,5584,-4761,-7,2,3
1054,150582,3439,5599,-4830,7,1,9
1055,150618,3455,5604,-4737,-14,5,6
1056,150629,3452,5613,-4739,-8,4,4
1057,150644,3451,5608,-4750,-1,4,5
1058,150660,3450,5620,-4809,7,5,3
1059,150670,3433,5625,-4822,-2,6,0
1060,150687,3412,5629,-4804,-12,7,-2
1061,150732,3467,5611,-4769,8,3,-1
1062,150760,3454,5632,-4776,-2,5,-2
1063,150775,3441,5604,-4771,-6,4,-2
1064,150790,3444,5591,-4772,-6,2,1
1065,150801,3446,5595,-4780,-1,1,0
1066,150816,3445,5593,-4780,2,0,2
1067,150833,3459,5593,-4737,3,5,-1
1068,150875,3430,5632,-4792,2,3,-5
1069,150895,3427,5601,-4771,-3,5,2
1070,150907,3448,5599,-4781,0,3,-1
1071,150920,3429,5595,-4778,1,4,-2
1072,150934,3445,5580,-4803,1,1,-3
1073,150948,3439,5604,-4804,-3,3,-4
1074,150960,3437,5593,-4775,-7,7,-3
1075,150981,3432,5604,-4756,-10,4,-1
1076,150993,3429,5616,-4734,-7,4,-1
1077,151056,3456,5576,-4747,-5,3,10
1078,151066,3473,5590,-4767,0,2,8
1079,151083,3454,5606,-4776,0,2,5
1080,151098,3429,5600,-4739,-4,1,8
1081,151114,3440,5596,-4754,3,1,12
1082,151129,3437,5605,-4776,7,2,7
1083,151143,3422,5613,-4788,6,4,6
1084,151165,3452,5600,-4802,-6,5,6
1085,151177,3456,5624,-4735,-11,5,2
1086,151192,3464,5610,-4720,-5,3,3
1087,151220,3423,5596,-4786,8,9,-1
1088,151249,3432,5610,-4787,-16,8,3
1089,151265,3479,5569,-4757,-16,7,6
1090,151281,3483,5605,-4776,1,3,-2
1091,151299,3418,5626,-4777,-1,3,0
1092,151345,3445,5609,-4755,-11,8,-3
1093,151364,3457,5602,-4793,-11,7,-2
1094,151381,3419,5590,-4753,-10,6,-1
1095,151397,3420,5574,-4743,-2,5,2
1096,151413,3462,5586,-4772,11,2,3
1097,151428,3464,5597,-4803,9,3,2
1098,151470,3439,5582,-4712,-13,3,5
1099,151501,3402,5626,-4813,8,0,3
1100,151512,3429,5630,-4800,-5,2,6
1101,151521,3450,5627,-4799,-15,2,4
1102,151535,3483,5599,-4762,-17,2,6
1103,151549,3484,5605,-4736,-13,-1,4
1104,151562,3448,5609,-4736,1,-2,0
1105,151576,3449,5609,-4757,9,-3,1
1106,151597,3459,5613,-4785,8,-1,1
1107,151630,3458,5609,-4761,-7,4,-4
1108,151662,3429,5593,-4753,-9,6,-3
1109,151679,3436,5595,-4764,1,3,-4
1110,151694,3408,5614,-4773,4,2,-3
1111,151708,3428,5593,-4798,3,0,2
1112,151722,3461,5599,-4785,-5,1,2
1113,151743,3441,5594,-4744,-8,4,-2
1114,151757,3443,5590,-4735,3,3,1
1115,151804,3448,5604,-4786,6,2,3
1116,151815,3469,5634,-4781,3,0,-1
1117,151825,3450,5643,-4753,3,1,-7
1118,151841,3444,5642,-4747,4,-1,-10
1119,151855,3445,5649,-4737,2,3,-14
1120,151869,3445,5653,-4772,11,5,-21
1121,151890,3474,5654,-4812,-10,9,-32
1122,151925,3428,5592,-4724,-14,10,-35
1123,151949,3431,5652,-4812,6,6,-40
1124,151960,3418,5624,-4835,-1,6,-38
1125,151974,3426,5617,-4820,-13,4,-33
1126,151988,3379,5609,-4746,-25,4,-37
1127,152001,3364,5626,-4723,-18,5,-34
1128,152015,3361,5607,-4727,-8,2,-31
1129,152028,3377,5610,-4762,-5,-2,-28
1130,152052,3381,5584,-4765,-10,-2,-17
1131,152098,3391,5607,-4794,-13,-6,-9
1132,152111,3395,5605,-4733,-14,-8,3
1133,152122,3388,5596,-4686,-8,-9,6
1134,152137,3376,5609,-4705,4,-11,8
1135,152151,3376,5656,-4810,10,-10,12
1136,152164,3383,5652,-4829,2,-13,12
1137,152184,3413,5663,-4758,-16,-13,14
1138,152215,3417,5636,-4646,10,-9,6
1139,152247,3368,5684,-4800,6,3,0
1140,152260,3388,5681,-4792,-6,8,1
1141,152274,3442,5626,-4733,-12,11,2
1142,152287,3438,5623,-4714,-1,12,-1
1143,152301,3426,5611,-4706,12,12,-3
1144,152315,3404,5648,-4781,17,11,-3
1145,152329,3384,5644,-4791,11,17,-3
1146,152345,3352,5627,-4775,-14,18,1
1147,152385,3371,5607,-4746,9,10,16
1148,152408,3379,5589,-4760,16,5,23
1149,152421,3404,5605,-4760,12,7,26
1150,152435,3442,5647,-4815,11,5,27
1151,152449,3447,5629,-4789,5,4,24
1152,152463,3424,5635,-4744,0,5,24
1153,152485,3404,5656,-4708,18,3,24
1154,152512,3444,5666,-4811,23,6,15
1155,152547,3436,5630,-4697,-9,13,-2
1156,152561,3446,5658,-4698,1,12,-5
1157,152580,3431,5633,-4811,21,12,-9
1158,152597,3430,5636,-4841,-9,15,-14
1159,152608,3408,5612,-4814,-26,15,-17
1160,152643,3403,5581,-4708,-8,11,-6
1161,152673,3404,5619,-4817,8,6,-5
1162,152692,3418,5592,-4781,-8,6,0
1163,152704,3425,5621,-4744,-9,6,0
1164,152719,3421,5601,-4760,-1,6,5
1165,152734,3420,5609,-4735,7,6,7
1166,152749,3426,5611,-4782,8,5,6
1167,152763,3410,5617,-4789,4,4,6
1168,152801,3431,5614,-4723,0,5,8
1169,152845,3418,5626,-4808,9,3,2
1170,152858,3412,5629,-4794,-1,3,1
1171,152874,3418,5596,-4763,-8,4,4
1172,152893,3418,5596,-4726,3,4,7
1173,152909,3441,5590,-4728,12,3,8
1174,152929,3474,5610,-4807,15,2,8
1175,152944,3429,5645,-4803,-6,8,0
1176,152967,3411,5595,-4740,-10,9,0
1177,152980,3378,5613,-4736,-9,8,-3
1178,153000,3377,5598,-4784,0,5,6
1179,153037,3452,5614,-4774,-3,0,3
1180,153052,3432,5637,-4754,-4,-1,1
1181,153061,3424,5627,-4724,0,0,-1
1182,153078,3454,5642,-4737,3,4,-2
1183,153110,3442,5622,-4768,-7,6,4
1184,153159,3409,5595,-4749,5,9,1
1185,153173,3428,5612,-4785,3,8,2
1186,153183,3435,5631,-4796,-5,7,-1
1187,153199,3409,5621,-4789,-11,6,-1
1188,153210,3414,5622,-4767,-12,4,2
1189,153225,3428,5604,-4766,-8,2,5
1190,153255,3400,5616,-4756,-2,5,1
1191,153293,3435,5600,-4779,-23,5,3
1192,153307,3423,5608,-4694,-13,1,3
1193,153318,3415,5602,-4710,3,0,5
1194,153334,3408,5605,-4745,12,-3,4
1195,153345,3401,5622,-4795,9,-3,7
1196,153355,3427,5616,-4816,1,0,9
1197,153372,3421,5618,-4755,-16,1,6
1198,153382,3432,5606,-4745,-16,0,8
1199,153408,3422,5626,-4752,5,-1,7
1200,153458,3442,5620,-4785,-5,1,6
1201,153473,3410,5638,-4766,-14,0,5
1202,153489,3435,5618,-4709,-8,0,6
1203,153500,3453,5622,-4731,3,-2,2
1204,153516,3444,5632,-4774,9,-2,0
1205,153531,3426,5639,-4807,-5,0,1
1206,153548,3427,5630,-4797,-13,0,-1
1207,153578,3446,5592,-4719,-3,2,0
1208,153613,3433,5615,-4802,2,2,3
1209,153631,3407,5622,-4740,-13,4,-2
1210,153648,3412,5608,-4728,-6,4,-1
1211,153658,3421,5608,-4718,1,2,1
1212,153674,3425,5623,-4778,10,1,1
1213,153702,3423,5619,-4757,-8,2,2
1214,153751,3440,5618,-4739,1,2,3
1215,153764,3422,5604,-4768,-4,5,1
1216,153782,3409,5587,-4737,-7,6,4
1217,153800,3435,5596,-4777,1,5,8
1218,153816,3416,5622,-4784,4,3,6
1219,153825,3432,5627,-4762,1,3,7
1220,153854,3432,5637,-4741,-2,5,5
1221,153904,3457,5626,-4767,-2,3,8
1222,153920,3456,5629,-4767,6,3,4
1223,153930,3448,5642,-4764,8,3,2
1224,153946,3407,5615,-4766,0,6,2
1225,153956,3443,5620,-4739,-3,6,3
1226,153972,3445,5602,-4736,-6,7,3
1227,153990,3457,5600,-4781,2,7,3
1228,154008,3437,5612,-4767,0,6,1
1229,154022,3429,5615,-4750,3,8,3
1230,154063,3436,5606,-4777,-2,8,3
1231,154073,3458,5607,-4790,-9,8,3
1232,154088,3446,5596,-4755,-11,6,4
1233,154105,3460,5609,-4735,-4,6,2
1234,154116,3422,5615,-4733,-2,7,-3
1235,154137,3401,5635,-4773,7,3,4
1236,154178,3460,5598,-4788,-12,2,4
1237,154210,3426,5601,-4740,7,2,1
1238,154221,3428,5616,-4768,4,2,5
1239,154238,3425,5619,-4770,1,2,5
1240,154255,3418,5626,-4780,-3,2,5
1241,154272,3457,5588,-4764,0,3,7
1242,154288,3468,5601,-4775,1,2,6
1243,154310,3438,5615,-4759,2,3,2
1244,154321,3451,5608,-4762,1,0,5
1245,154336,3439,5621,-4751,-1,1,5
1246,154351,3432,5621,-4764,0,-1,4
1247,154382,3473,5607,-4776,3,3,3
1248,154392,3474,5627,-4782,0,2,0
1249,154401,3474,5627,-4782,0,2,0
1250,154418,3426,5606,-4767,-7,6,-1
1251,154451,3411,5626,-4725,-3,4,0
1252,154492,3475,5602,-4826,5,6,4
1253,154506,3488,5596,-4783,-13,7,0
1254,154522,3444,5605,-4754,-17,9,-2
1255,154533,3417,5595,-4719,-15,8,2
1256,154544,3398,5576,-4725,3,4,5
1257,154561,3390,5593,-4761,13,1,5
1258,154572,3397,5610,-4792,14,1,7
1259,154595,3467,5595,-4774,-1,2,12
1260,154643,3471,5596,-4741,3,3,10
1261,154663,3451,5599,-4759,6,3,12
1262,154674,3446,5603,-4785,10,2,10
1263,154683,3427,5619,-4789,11,2,9
1264,154694,3432,5632,-4798,7,4,11
1265,154710,3479,5617,-4753,-3,4,8
1266,154736,3454,5616,-4732,-6,5,0
1267,154774,3460,5587,-4772,3,3,4
1268,154800,3448,5614,-4779,5,2,-1
1269,154817,3457,5585,-4762,3,3,0
1270,154827,3493,5595,-4744,7,4,-2
1271,154837,3462,5618,-4742,3,8,-6
1272,154855,3437,5617,-4760,0,7,-2
1273,154874,3501,5572,-4774,4,8,4
1274,154884,3479,5592,-4772,7,4,-3
1275,154905,3416,5610,-4771,11,4,-4
1276,154960,3420,5608,-4782,-12,11,-13
1277,154976,3441,5568,-4733,-14,9,-2
1278,154986,3444,5535,-4738,-7,10,0
1279,155003,3415,5570,-4787,9,7,-1
1280,155020,3414,5554,-4813,7,5,2
1281,155092,3451,5577,-4729,3,4,14
1282,155107,3456,5571,-4735,10,5,15
1283,155117,3434,5600,-4766,13,4,10
1284,155127,3421,5634,-4793,13,3,10
1285,155144,3455,5635,-4792,7,5,9
1286,155155,3465,5616,-4785,6,7,7
1287,155172,3489,5587,-4798,6,9,6
1288,155183,3485,5589,-4809,-1,8,2
1289,155200,3477,5599,-4760,-11,10,-5
1290,155257,3451,5628,-4850,-2,2,-9
1291,155273,3422,5617,-4817,-14,7,-7
1292,155288,3506,5540,-4743,-15,5,1
1293,155306,3457,5590,-4755,-6,5,-7
1294,155323,3448,5582,-4769,2,2,-2
1295,155341,3454,5589,-4773,1,0,2
1296,155387,3497,5575,-4779,-5,5,4
1297,155406,3472,5600,-4781,-12,1,-8
1298,155424,3430,5611,-4757,-10,2,-5
1299,155435,3425,5585,-4749,-5,1,0
1300,155451,3436,5590,-4732,8,0,-1
1301,155462,3422,5599,-4768,12,0,-2
1302,155473,3445,5618,-4829,11,0,-4
1303,155502,3484,5550,-4769,-16,2,2
1304,155553,3442,5604,-4760,8,1,1
1305,155573,3399,5577,-4765,5,0,2
1306,155583,3436,5599,-4779,4,-2,3
1307,155592,3467,5621,-4821,2,-1,4
1308,155617,3471,5583,-4796,-6,1,6
1309,155628,3507,5565,-4770,-6,-1,5
1310,155647,3442,5572,-4742,1,2,-2
1311,155663,3425,5564,-4762,8,0,1
1312,155678,3439,5575,-4788,11,-1,2
1313,155693,3414,5580,-4768,7,1,1
1314,155721,3563,5626,-4796,39,3,-1
1315,155741,3533,5655,-4891,17,8,-16
1316,155752,3463,5675,-4870,-14,6,-25
1317,155770,3367,5639,-4819,-39,12,-26
1318,155782,3291,5585,-4744,-40,6,-12
1319,155813,3389,5530,-4793,10,-12,6
1320,155859,3611,5552,-4783,7,-9,7
1321,155877,3638,5650,-4767,11,-6,-3
1322,155888,3602,5670,-4776,11,-7,-9
1323,155898,3532,5675,-4770,14,-5,-16
1324,155916,3412,5686,-4782,12,-4,-27
1325,155926,3365,5665,-4782,7,2,-33
1326,155944,3338,5663,-4790,0,3,-38
1327,155983,3415,5565,-4757,-25,6,-44
1328,156009,3426,5572,-4794,6,-2,-44
1329,156023,3403,5556,-4795,7,-4,-38
1330,156033,3380,5543,-4787,3,0,-34
1331,156044,3371,5561,-4784,-6,4,-31
1332,156059,3425,5580,-4841,-19,15,-19
1333,156069,3448,5579,-4832,-36,16,-17
1334,156087,3288,5535,-4656,-56,29,-9
1335,156132,3258,5520,-4923,-2,2,51
1336,156158,3589,5526,-4908,7,-26,79
1337,156169,3635,5572,-4919,14,-35,71
1338,156187,3597,5614,-4908,8,-37,60
1339,156197,3435,5649,-4717,-25,-38,58
1340,156214,3397,5641,-4660,-32,-37,60
1341,156225,3366,5653,-4626,-36,-35,61
1342,156234,3352,5629,-4618,-28,-31,63
1343,156256,3427,5581,-4687,21,-24,64
1344,156306,3616,5721,-4763,19,8,16
1345,156325,3556,5751,-4763,-1,15,-4
1346,156342,3487,5682,-4677,-7,18,-19
1347,156354,3435,5682,-4718,4,20,-27
1348,156364,3395,5648,-4767,12,24,-35
1349,156376,3409,5628,-4824,13,29,-44
1350,156399,3431,5587,-4876,-7,36,-54
1351,156414,3464,5582,-4841,-42,35,-56
1352,156460,3436,5540,-4745,11,9,-40
1353,156484,3351,5591,-4932,0,10,-29
1354,156495,3371,5563,-4904,-21,12,-22
1355,156505,3382,5543,-4835,-39,10,-21
1356,156516,3370,5539,-4750,-44,9,-23
1357,156534,3354,5533,-4684,-29,4,-15
1358,156577,3427,5634,-4856,37,-13,0
1359,156599,3473,5631,-4832,-7,-3,-1
1360,156615,3472,5632,-4742,-16,0,-9
1361,156625,3425,5616,-4715,-5,0,-11
1362,156636,3383,5607,-4703,5,1,-11
1363,156648,3404,5604,-4760,14,1,-13
1364,156657,3391,5630,-4799,17,1,-17
1365,156675,3387,5638,-4820,-4,3,-20
1366,156700,3439,5644,-4792,-17,6,-22
1367,156749,3370,5606,-4829,-3,14,-22
1368,156775,3366,5557,-4774,-23,17,-11
1369,156786,3339,5557,-4734,-11,18,-5
1370,156796,3332,5566,-4743,-1,17,1
1371,156814,3355,5559,-4798,15,15,8
1372,156825,3407,5550,-4818,23,14,14
1373,156859,3387,5583,-4747,13,18,25
1374,156898,3363,5607,-4816,21,19,38
1375,156909,3353,5606,-4801,16,19,44
1376,156920,3394,5597,-4789,18,17,51
1377,156930,3439,5614,-4793,27,15,50
1378,156941,3481,5614,-4844,34,13,44
1379,156951,3522,5617,-4886,32,12,39
1380,156962,3537,5646,-4882,24,8,32
1381,156974,3544,5666,-4853,13,8,22
1382,157010,3454,5671,-4809,1,5,-8
1383,157020,3421,5664,-4811,-9,8,-12
1384,157038,3420,5662,-4804,-14,10,-17
1385,157057,3461,5580,-4841,-27,11,-21
1386,157091,3418,5574,-4730,-20,13,-24
1387,157106,3411,5551,-4694,-14,13,-19
1388,157116,3403,5528,-4692,-4,11,-16
1389,157135,3361,5560,-4790,12,12,-4
1390,157180,3451,5556,-4823,10,10,13
1391,157205,3433,5610,-4782,15,-1,11
1392,157216,3409,5614,-4755,16,1,13
1393,157226,3429,5612,-4753,19,0,14
1394,157236,3434,5604,-4791,20,2,11
1395,157248,3440,5625,-4821,12,2,6
1396,157259,3419,5625,-4829,4,1,4
1397,157271,3436,5607,-4814,2,0,5
1398,157306,3495,5600,-4802,3,5,-4
1399,157345,3388,5596,-4783,-22,9,-11
1400,157359,3405,5579,-4758,-22,6,-10
1401,157369,3418,5579,-4774,-14,6,-12
1402,157380,3392,5610,-4783,-7,4,-13
1403,157391,3391,5606,-4800,-6,3,-12
1404,157403,3415,5548,-4780,-3,5,-7
1405,157413,3472,5553,-4779,-5,6,-4
1406,157424,3478,5577,-4815,-10,4,-10
1407,157477,3403,5564,-4731,-1,2,1
1408,157513,3461,5595,-4832,7,4,7
1409,157526,3464,5587,-4781,-9,6,1
1410,157544,3453,5584,-4756,-7,5,2
1411,157554,3455,5607,-4731,-3,4,2
1412,157570,3443,5605,-4749,10,5,4
1413,157593,3426,5631,-4814,12,8,2
1414,157624,3471,5606,-4823,-10,12,2
1415,157641,3453,5595,-4745,-18,12,-5
1416,157657,3420,5588,-4748,-9,10,-4
1417,157675,3405,5574,-4783,7,7,-2
1418,157696,3400,5602,-4792,5,6,0
1419,157708,3418,5587,-4804,1,7,2
1420,157719,3453,5596,-4810,-2,9,1
1421,157729,3453,5596,-4810,-2,9,1
1422,157746,3476,5560,-4802,-7,7,6
1423,157764,3450,5561,-4756,-4,6,5
1424,157787,3414,5582,-4806,9,5,9
1425,157816,3384,5603,-4801,3,0,14
1426,157836,3448,5626,-4809,3,-2,14
1427,157848,3466,5610,-4809,0,-4,12
1428,157860,3477,5608,-4784,-4,-1,9
1429,157872,3488,5595,-4767,-11,-2,8
1430,157882,3459,5606,-4765,-10,-1,4
1431,157918,3453,5583,-4770,-9,-1,6
1432,157954,3443,5641,-4779,-6,-2,-3
1433,157964,3441,5601,-4755,-6,-1,-3
1434,157973,3479,5606,-4770,-9,0,-5
1435,157993,3425,5615,-4772,-19,2,-12
1436,158003,3425,5615,-4772,-19,2,-12
1437,158012,3424,5599,-4768,-21,4,-7
1438,158034,3419,5560,-4763,-12,5,-2
1439,158055,3408,5592,-4800,1,4,-1
1440,158071,3435,5534,-4835,4,4,5
1441,158120,3448,5589,-4725,-2,0,9
1442,158130,3449,5586,-4744,7,-4,7
1443,158141,3414,5605,-4789,16,-4,7
1444,158151,3393,5609,-4815,13,-4,9
1445,158164,3395,5618,-4811,2,-3,8
1446,158182,3430,5613,-4793,-11,3,7
1447,158217,3455,5597,-4706,-8,1,4
1448,158256,3448,5605,-4810,13,0,4
1449,158268,3422,5595,-4771,0,3,4
1450,158278,3440,5568,-4776,0,6,8
1451,158289,3466,5591,-4794,-1,6,7
1452,158301,3460,5617,-4786,-6,7,2
1453,158312,3437,5618,-4799,-7,7,0
1454,158322,3429,5595,-4804,-6,6,3
1455,158340,3424,5583,-4764,-9,2,7
1456,158378,3408,5595,-4765,0,-4,11
1457,158409,3480,5610,-4806,4,-2,9
1458,158419,3467,5595,-4781,-5,1,11
1459,158428,3467,5595,-4781,-5,1,11
1460,158441,3448,5583,-4738,-12,3,10
1461,158452,3442,5574,-4725,-8,3,12
1462,158464,3431,5604,-4754,-1,0,12
1463,158477,3427,5578,-4750,4,1,13
1464,158492,3461,5588,-4775,14,0,14
1465,158506,3488,5617,-4818,17,0,11
1466,158524,3470,5605,-4824,6,4,9
1467,158549,3501,5592,-4752,-7,6,3
1468,158564,3430,5615,-4750,-2,5,1
1469,158605,3449,5590,-4803,6,5,4
1470,158623,3475,5601,-4848,6,4,3
1471,158642,3496,5568,-4754,-11,7,7
1472,158683,3440,5571,-4773,13,8,7
1473,158702,3458,5588,-4825,12,5,8
1474,158712,3442,5610,-4802,5,3,8
1475,158723,3421,5608,-4802,-2,6,11
1476,158732,3439,5569,-4785,-1,3,14
1477,158743,3450,5571,-4756,4,4,11
1478,158753,3454,5566,-4760,9,7,6
1479,158764,3485,5591,-4792,15,7,2
1480,158773,3485,5591,-4792,15,7,2
1481,158784,3487,5603,-4810,8,10,-1
1482,158823,3450,5559,-4773,3,7,-1
1483,158859,3462,5596,-4827,9,8,-1
1484,158872,3477,5560,-4828,5,11,1
1485,158883,3517,5558,-4834,-3,9,3
1486,158892,3511,5586,-4802,-11,8,-2
1487,158903,3477,5572,-4780,-14,9,-3
1488,158913,3450,5557,-4756,-10,10,2
1489,158923,3452,5537,-4742,-4,7,6
1490,158932,3441,5537,-4744,0,3,6
1491,158954,3449,5574,-4799,15,3,10
1492,159002,3472,5589,-4744,-12,5,2
1493,159022,3458,5578,-4730,5,3,5
1494,159031,3462,5576,-4754,9,2,4
1495,159042,3449,5583,-4785,11,5,3
1496,159051,3430,5587,-4788,8,4,3
1497,159062,3442,5575,-4807,4,5,5
1498,159071,3492,5604,-4836,3,4,2
1499,159089,3488,5549,-4804,0,7,3
1500,159150,3458,5543,-4775,-1,3,2
1501,159164,3451,5554,-4789,7,3,3
1502,159173,3442,5558,-4822,8,2,5
1503,159184,3444,5584,-4843,6,-1,5
1504,159193,3471,5610,-4811,2,1,6
1505,159204,3475,5558,-4790,-1,4,8
1506,159213,3529,5535,-4789,2,1,11
1507,159224,3529,5557,-4800,0,0,3
1508,159233,3469,5588,-4813,-5,1,-5
1509,159250,3436,5588,-4793,-9,4,0
1510,159270,3476,5548,-4745,-7,-2,8
1511,159320,3521,5584,-4828,10,1,5
1512,159338,3532,5559,-4792,-9,4,-1
1513,159348,3494,5569,-4764,-11,5,-7
1514,159359,3474,5567,-4758,-7,7,-8
1515,159368,3466,5568,-4751,-2,7,-3
1516,159386,3452,5554,-4780,10,5,1
1517,159430,3474,5558,-4832,5,4,6
1518,159450,3496,5497,-4766,0,4,10
1519,159460,3505,5518,-4784,7,1,11
1520,159469,3475,5565,-4793,11,0,9
1521,159480,3439,5552,-4796,12,0,12
1522,159489,3451,5542,-4773,11,0,19
1523,159502,3476,5556,-4786,15,0,19
1524,159511,3466,5581,-4821,18,-2,17
1525,159522,3451,5593,-4828,13,-1,15
1526,159532,3477,5595,-4838,6,0,15
1527,159578,3532,5556,-4802,16,4,2
1528,159615,3489,5568,-4820,-2,11,-2
1529,159631,3445,5565,-4774,-4,10,0
1530,159641,3435,5568,-4782,-1,8,2
1531,159650,3450,5545,-4796,4,7,3
1532,159661,3481,5518,-4795,9,8,7
1533,159670,3535,5510,-4841,8,9,6
1534,159681,3537,5536,-4853,-2,7,-3
1535,159698,3468,5558,-4817,-15,11,-2
1536,159750,3460,5553,-4832,14,2,6
1537,159770,3531,5550,-4867,7,2,11
1538,159781,3549,5521,-4849,5,3,10
1539,159790,3547,5529,-4818,-2,4,6
1540,159801,3513,5546,-4778,-8,3,-1
1541,159810,3496,5560,-4765,-7,1,-3
1542,159821,3470,5558,-4787,-5,5,1
1543,159830,3445,5549,-4791,1,4,7
1544,159849,3480,5541,-4769,6,3,9
1545,159900,3549,5534,-4821,-12,3,-2
1546,159919,3529,5518,-4797,-16,6,-4
1547,159929,3495,5526,-4774,-14,6,-2
1548,159940,3485,5536,-4760,-7,2,0
1549,159949,3493,5518,-4789,4,1,0
1550,159960,3484,5535,-4810,7,3,3
1551,159969,3472,5539,-4826,5,4,2
1552,159980,3463,5539,-4839,5,2,2
1553,160008,3497,5534,-4812,-9,3,4
1554,160050,3494,5549,-4796,8,5,1
1555,160064,3508,5553,-4821,4,3,1
1556,160074,3492,5554,-4813,-2,6,-1
1557,160085,3478,5555,-4800,-2,7,-2
1558,160094,3495,5563,-4799,3,6,-1
1559,160105,3511,5549,-4810,7,8,0
1560,160114,3512,5525,-4831,8,9,1
1561,160125,3520,5527,-4844,2,8,-2
1562,160160,3470,5524,-4784,-6,10,0
1563,160202,3478,5534,-4881,16,3,6
1564,160223,3439,5576,-4810,-9,4,3
1565,160233,3466,5518,-4728,-12,5,13
1566,160245,3614,5465,-4833,28,4,14
1567,160255,3606,5601,-4846,25,14,2
1568,160266,3484,5532,-4908,11,15,0
1569,160275,3451,5565,-4931,3,4,-1
1570,160323,3472,5522,-4747,2,-6,6
1571,160354,3508,5499,-4892,12,0,9
1572,160366,3598,5505,-4873,-11,1,9
1573,160377,3536,5532,-4814,-29,5,-5
1574,160389,3502,5550,-4751,-23,5,3
1575,160400,3501,5533,-4696,-16,0,10
1576,160411,3491,5501,-4697,1,-1,15
1577,160423,3479,5506,-4764,22,-2,14
1578,160434,3444,5545,-4845,30,-5,11
1579,160481,3527,5530,-4769,-5,10,6
1580,160519,3498,5523,-4812,24,3,13
1581,160532,3491,5545,-4827,23,3,12
1582,160543,3501,5544,-4866,18,2,9
1583,160553,3500,5537,-4916,8,4,8
1584,160565,3512,5548,-4880,-11,4,5
1585,160575,3518,5530,-4821,-25,6,5
1586,160603,3512,5535,-4788,-1,3,3
1587,160647,3499,5523,-4830,-11,4,-1
1588,160672,3525,5569,-4813,-9,3,4
1589,160683,3545,5534,-4808,-2,2,7
1590,160693,3564,5516,-4818,0,1,5
1591,160704,3544,5534,-4824,-5,2,-1
1592,160714,3510,5537,-4826,-12,7,-2
1593,160727,3477,5525,-4804,-13,9,4
1594,160759,3475,5507,-4786,1,6,2
1595,160814,3538,5516,-4782,1,2,2
1596,160826,3534,5536,-4801,3,4,-1
1597,160839,3508,5530,-4818,3,2,-4
1598,160851,3491,5524,-4832,5,3,-2
1599,160863,3479,5564,-4830,-3,5,-2
1600,160873,3479,5549,-4811,-11,3,-1
1601,160884,3496,5521,-4811,-6,2,-1
1602,160927,3592,5568,-4861,-7,2,-10
1603,160961,3469,5495,-4751,-27,4,-7
1604,160973,3490,5488,-4738,-15,2,-5
1605,160984,3498,5510,-4776,1,4,-7
1606,160994,3482,5514,-4825,8,2,-5
1607,161005,3479,5509,-4831,8,4,-4
1608,161015,3504,5522,-4840,6,5,-3
1609,161026,3529,5549,-4838,-2,7,-5
1610,161036,3545,5536,-4791,-11,6,-4
1611,161074,3470,5518,-4797,1,3,1
1612,161096,3477,5508,-4820,3,2,0
1613,161119,3494,5516,-4823,0,1,6
1614,161134,3530,5535,-4811,-2,4,8
1615,161150,3646,5516,-4822,14,3,10
1616,161161,3636,5526,-4836,13,1,0
1617,161171,3576,5540,-4812,14,4,-8
1618,161182,3536,5560,-4792,14,8,-11
1619,161222,3451,5590,-4822,3,12,-23
1620,161261,3525,5515,-4872,4,1,-12
1621,161272,3547,5497,-4877,9,-4,-12
1622,161284,3546,5493,-4867,9,-10,-16
1623,161294,3522,5523,-4849,7,-11,-21
1624,161305,3485,5550,-4803,2,-4,-22
1625,161315,3478,5532,-4769,-1,1,-24
1626,161333,3454,5566,-4815,0,3,-29
1627,161361,3489,5608,-4822,-17,5,-30
1628,161400,3558,5529,-4788,-5,9,-33
1629,161414,3486,5550,-4841,-20,16,-46
1630,161426,3463,5542,-4808,-33,21,-40
1631,161436,3473,5500,-4787,-37,23,-32
1632,161447,3479,5496,-4767,-33,21,-30
1633,161459,3452,5484,-4808,-21,15,-32
1634,161469,3401,5533,-4832,-12,12,-30
1635,161481,3355,5559,-4852,-15,10,-24
1636,161529,3429,5522,-4828,-21,3,1
1637,161556,3486,5539,-4700,3,-3,18
1638,161568,3442,5556,-4709,20,-5,21
1639,161579,3458,5548,-4761,39,-4,24
1640,161589,3511,5572,-4848,40,-1,24
1641,161600,3525,5612,-4902,24,3,20
1642,161617,3500,5547,-4804,-5,11,18
1643,161629,3515,5541,-4736,-9,11,15
1644,161659,3462,5609,-4824,39,5,3
1645,161707,3498,5598,-4827,-3,7,-19
1646,161721,3527,5573,-4789,-11,8,-23
1647,161732,3543,5574,-4783,-11,6,-28
1648,161744,3548,5585,-4808,-6,6,-35
1649,161754,3512,5576,-4839,0,7,-36
1650,161765,3465,5561,-4835,-5,7,-35
1651,161775,3469,5544,-4846,-11,6,-35
1652,161807,3408,5582,-4856,-5,2,-39
1653,161846,3529,5545,-4758,-12,2,-30
1654,161863,3462,5583,-4831,11,-2,-34
1655,161874,3402,5547,-4820,7,-2,-29
1656,161886,3395,5505,-4817,7,-2,-21
1657,161896,3402,5523,-4824,6,0,-18
1658,161908,3364,5534,-4827,0,-1,-20
1659,161919,3365,5557,-4815,0,-3,-12
1660,161954,3455,5553,-4813,11,-5,-2
1661,161997,3409,5522,-4785,-3,1,6
1662,162009,3399,5514,-4754,-2,2,7
1663,162020,3388,5553,-4782,1,6,6
1664,162030,3399,5584,-4851,9,7,16
1665,162042,3454,5600,-4896,8,7,19
1666,162052,3509,5567,-4892,2,6,21
1667,162064,3548,5551,-4845,-8,7,18
1668,162074,3518,5564,-4790,-14,5,11
1669,162125,3365,5577,-4827,-3,12,17
1670,162142,3412,5603,-4832,-7,7,13
1671,162169,3495,5531,-4811,6,6,21
1672,162180,3542,5537,-4820,10,1,14
1673,162191,3539,5555,-4845,9,2,5
1674,162203,3471,5571,-4858,-3,4,7
1675,162213,3462,5545,-4807,-12,3,7
1676,162225,3436,5551,-4776,-14,4,6
1677,162235,3408,5585,-4787,-7,1,4
1678,162267,3426,5601,-4850,-6,-1,2
1679,162316,3460,5582,-4787,-14,1,-2
1680,162332,3471,5552,-4804,-9,-1,1
1681,162343,3472,5560,-4834,-7,-3,-1
1682,162353,3439,5564,-4822,-12,-1,-2
1683,162365,3398,5560,-4805,-16,-1,-1
1684,162383,3422,5584,-4823,-6,-4,2
1685,162424,3458,5581,-4822,-12,-3,-2
1686,162453,3450,5564,-4805,-11,-7,3
1687,162467,3427,5608,-4762,-11,-5,-4
1688,162477,3387,5603,-4750,-7,-9,-1
1689,162489,3411,5603,-4793,4,-10,2
1690,162501,3455,5602,-4827,9,-8,1
1691,162511,3464,5564,-4843,2,-5,0
1692,162523,3489,5574,-4834,-8,-4,-2
1693,162533,3487,5571,-4798,-13,-3,-6
1694,162558,3458,5549,-4752,-3,3,-6
1695,162610,3410,5596,-4830,-1,4,-5
1696,162626,3421,5579,-4838,-5,6,-5
1697,162636,3441,5542,-4824,-7,7,-1
1698,162648,3454,5544,-4805,-9,6,-1
1699,162658,3464,5557,-4809,-9,5,-4
1700,162670,3403,5547,-4780,-10,9,0
1701,162681,3407,5533,-4785,-6,6,6
1702,162700,3428,5557,-4799,-2,5,9
1703,162751,3427,5577,-4808,-1,4,14
1704,162777,3421,5565,-4847,-2,-2,15
1705,162789,3418,5586,-4837,-4,-3,14
1706,162800,3426,5570,-4801,-7,-1,20
1707,162819,3439,5568,-4770,0,-4,17
1708,162837,3403,5601,-4799,0,-1,16
1709,162893,3478,5581,-4767,-12,1,3
1710,162910,3435,5576,-4741,-3,-2,3
1711,162922,3415,5556,-4737,1,0,4
1712,162932,3415,5598,-4756,7,4,3
1713,162944,3444,5611,-4835,1,7,4
1714,162954,3483,5624,-4877,-2,6,1
1715,162966,3488,5640,-4840,-11,9,-3
1716,162976,3475,5585,-4805,-14,11,-3
1717,163018,3453,5576,-4811,-1,12,-14
1718,163054,3398,5549,-4784,-20,10,-9
1719,163066,3413,5554,-4779,-4,3,-2
1720,163076,3422,5567,-4796,5,3,-2
1721,163088,3421,5551,-4829,14,1,0
1722,163098,3426,5562,-4851,11,2,3
1723,163110,3446,5546,-4814,1,1,4
1724,163122,3477,5560,-4785,-6,1,6
1725,163132,3481,5562,-4761,-7,3,6
1726,163163,3469,5561,-4781,14,0,12
1727,163218,3480,5566,-4809,1,9,9
1728,163232,3509,5585,-4785,-2,6,8
1729,163244,3521,5594,-4791,-2,7,0
1730,163255,3473,5600,-4798,-4,12,-4
1731,163267,3417,5564,-4793,-5,12,-2
1732,163277,3410,5557,-4787,-2,11,2
1733,163296,3427,5557,-4777,-2,11,0
1734,163351,3517,5576,-4830,-1,11,-11
1735,163371,3441,5563,-4809,-10,14,-13
1736,163383,3432,5577,-4814,-10,13,-13
1737,163393,3406,5582,-4805,-15,11,-14
1738,163405,3400,5539,-4803,-12,11,-8
1739,163416,3420,5528,-4792,-2,6,-5
1740,163432,3446,5579,-4840,4,8,-8
1741,163451,3499,5549,-4861,-5,6,-2
1742,163470,3505,5561,-4829,-21,8,-7
1743,163500,3413,5551,-4741,-23,6,0
1744,163520,3443,5559,-4772,3,4,5
1745,163536,3428,5596,-4862,4,1,1
1746,163548,3446,5606,-4855,-7,3,4
1747,163562,3495,5551,-4781,-22,7,7
1748,163573,3481,5570,-4738,-26,7,2
1749,163600,3419,5579,-4753,-8,6,6
1750,163649,3441,5602,-4805,-1,-1,5
1751,163672,3486,5574,-4744,-3,2,13
1752,163684,3466,5564,-4799,-7,5,6
1753,163694,3457,5584,-4808,-10,3,6
1754,163706,3453,5598,-4797,-11,0,8
1755,163716,3467,5571,-4763,-9,-1,13
1756,163729,3476,5564,-4755,-2,-3,14
1757,163762,3456,5609,-4790,15,-2,4
1758,163810,3479,5601,-4756,-21,5,0
1759,163824,3476,5587,-4744,-14,5,1
1760,163835,3466,5570,-4749,-1,5,1
1761,163847,3436,5602,-4829,5,1,-5
1762,163858,3436,5602,-4848,-6,3,-6
1763,163870,3454,5583,-4818,-17,5,-5
1764,163893,3493,5576,-4753,-25,8,-8
1765,163947,3434,5540,-4769,-3,-1,0
1766,163963,3455,5574,-4806,2,-2,-1
1767,163974,3448,5601,-4849,-2,-1,-1
1768,163987,3465,5586,-4828,-4,0,2
1769,163999,3488,5563,-4763,-18,0,0
1770,164012,3451,5583,-4746,-11,-1,-4
1771,164024,3419,5591,-4747,-4,1,-3
1772,164044,3448,5575,-4771,7,-4,8
1773,164103,3484,5587,-4785,-12,4,-8
1774,164122,3417,5590,-4738,-8,4,-4
1775,164135,3438,5569,-4736,-2,4,2
1776,164148,3459,5584,-4767,7,3,2
1777,164159,3468,5596,-4811,8,3,-4
1778,164173,3445,5586,-4828,-5,4,-4
1779,164194,3462,5574,-4795,-14,5,-4
1780,164259,3432,5577,-4788,-5,7,5
1781,164271,3457,5582,-4796,-5,6,6
1782,164283,3458,5587,-4780,-3,6,5
1783,164294,3459,5583,-4781,3,7,6
1784,164306,3454,5585,-4775,2,6,5
1785,164317,3451,5568,-4778,0,9,5
1786,164329,3462,5592,-4777,2,8,5
1787,164360,3447,5582,-4783,6,9,7
1788,164409,3469,5582,-4785,1,8,2
1789,164422,3483,5593,-4777,0,8,1
1790,164433,3459,5606,-4789,-1,7,-1
1791,164446,3465,5558,-4789,0,8,0
1792,164457,3473,5566,-4791,3,8,-1
1793,164469,3454,5578,-4785,-2,9,-3
1794,164480,3447,5573,-4773,-1,8,0
1795,164516,3486,5603,-4830,4,5,-1
1796,164559,3456,5581,-4790,-5,7,-2
1797,164575,3433,5577,-4799,-3,8,0
1798,164587,3475,5572,-4784,3,3,6
1799,164598,3484,5571,-4758,7,3,4
1800,164617,3461,5568,-4782,10,6,3
1801,164639,3479,5599,-4802,1,7,4
1802,164697,3465,5572,-4791,16,1,-1
1803,164717,3429,5564,-4765,8,2,-2
1804,164729,3478,5590,-4788,-2,6,-1
1805,164740,3484,5586,-4791,-10,9,-1
1806,164753,3483,5587,-4779,-7,9,1
1807,164765,3493,5571,-4768,-1,6,2
1808,164776,3501,5558,-4783,4,5,1
1809,164796,3484,5563,-4812,7,5,-2
1810,164839,3466,5560,-4765,-11,8,7
1811,164865,3468,5571,-4778,2,6,6
1812,164876,3460,5559,-4795,6,5,7
1813,164890,3454,5564,-4795,3,5,7
1814,164902,3454,5586,-4745,1,7,7
1815,164913,3477,5567,-4771,6,8,11
1816,164925,3510,5565,-4834,7,7,12
1817,164947,3481,5584,-4796,-8,11,1
1818,165003,3467,5612,-4836,13,11,8
1819,165020,3469,5570,-4843,1,11,12
1820,165032,3490,5551,-4828,-8,13,13
1821,165044,3441,5564,-4739,-12,12,6
1822,165056,3430,5556,-4738,3,11,9
1823,165068,3464,5536,-4779,16,6,14
1824,165079,3493,5564,-4819,20,6,15
1825,165106,3508,5553,-4813,-8,8,15
1826,165156,3466,5541,-4782,2,7,16
1827,165172,3476,5570,-4811,6,6,17
1828,165184,3496,5573,-4817,5,5,13
1829,165195,3522,5567,-4841,-1,6,11
1830,165208,3532,5578,-4806,-12,4,9
1831,165219,3521,5588,-4779,-18,6,5
1832,165232,3511,5575,-4745,-12,8,6
1833,165297,3486,5585,-4783,-11,8,-1
1834,165318,3483,5556,-4785,-1,5,-1
1835,165330,3504,5536,-4793,-1,2,0
1836,165341,3503,5558,-4802,-3,-1,-4
1837,165354,3468,5566,-4792,-7,3,-6
1838,165367,3469,5547,-4768,-6,2,0
1839,165378,3496,5526,-4783,11,-6,6
1840,165397,3514,5571,-4826,10,-4,5
1841,165446,3490,5564,-4752,-14,-6,5
1842,165474,3512,5552,-4809,15,-10,9
1843,165487,3502,5590,-4842,15,-11,3
1844,165498,3493,5620,-4830,3,-8,-1
1845,165511,3498,5576,-4742,-15,-3,3
1846,165523,3529,5573,-4718,-5,-6,1
1847,165534,3532,5561,-4761,7,-4,-3
1848,165575,3533,5560,-4781,-2,2,-8
1849,165619,3489,5578,-4815,3,3,-14
1850,165634,3457,5577,-4814,-10,1,-21
1851,165646,3441,5563,-4811,-13,1,-20
1852,165657,3450,5553,-4779,-12,2,-15
1853,165670,3486,5530,-4771,-3,1,-10
1854,165683,3496,5562,-4857,6,-2,-18
1855,165699,3488,5573,-4830,2,-1,-17
1856,165720,3529,5570,-4816,-11,0,-13
1857,165747,3452,5567,-4777,-10,-1,-16
1858,165781,3417,5570,-4783,-4,-4,-16
1859,165803,3450,5548,-4750,5,-6,-11
1860,165816,3486,5588,-4837,6,-8,-15
1861,165828,3487,5600,-4843,-4,-5,-13
1862,165844,3496,5578,-4808,-9,-7,-12
1863,165861,3466,5556,-4753,-6,-8,-11
1864,165894,3453,5572,-4815,17,-9,-6
1865,165912,3408,5578,-4814,-2,-3,-7
1866,165931,3463,5550,-4764,-6,-2,-1
1867,165949,3451,5567,-4783,5,-2,1
1868,165961,3443,5586,-4808,8,-5,2
1869,165974,3443,5563,-4824,9,-3,4
1870,166010,3418,5572,-4777,-10,-1,7
1871,166050,3446,5540,-4789,1,2,13
1872,166061,3445,5545,-4781,5,4,15
1873,166074,3448,5542,-4765,5,5,17
1874,166087,3475,5541,-4784,9,5,21
1875,166098,3483,5564,-4814,10,9,24
1876,166111,3457,5560,-4810,10,9,23
1877,166122,3453,5566,-4804,15,6,29
1878,166164,3422,5605,-4811,18,7,19
1879,166204,3495,5592,-4806,-2,6,12
1880,166216,3519,5579,-4770,-3,6,8
1881,166229,3539,5554,-4776,5,5,5
1882,166240,3508,5575,-4816,14,8,-2
1883,166253,3518,5564,-4861,13,10,-7
1884,166270,3525,5588,-4866,6,14,-11
1885,166299,3466,5575,-4804,-13,14,-17
1886,166359,3466,5535,-4854,11,11,-3
1887,166372,3500,5511,-4846,1,9,1
1888,166384,3514,5544,-4827,5,6,1
1889,166396,3499,5578,-4786,8,4,0
1890,166409,3461,5580,-4772,12,6,3
1891,166420,3456,5556,-4765,20,5,7
1892,166440,3463,5575,-4825,15,9,2
1893,166494,3466,5550,-4790,4,11,-4
1894,166516,3493,5561,-4851,17,5,-3
1895,166529,3484,5582,-4877,8,5,-10
1896,166541,3465,5573,-4848,-6,10,-8
1897,166554,3459,5544,-4805,-19,11,-4
1898,166566,3487,5545,-4783,-18,8,-3
1899,166585,3449,5537,-4825,-6,2,-5
1900,166642,3498,5551,-4830,-12,2,5
1901,166665,3476,5533,-4757,-16,4,7
1902,166677,3484,5548,-4772,0,4,10
1903,166690,3470,5544,-4786,3,4,11
1904,166702,3468,5560,-4835,11,3,13
1905,166715,3465,5568,-4845,9,4,13
1906,166727,3488,5569,-4840,-3,4,8
1907,166759,3487,5557,-4790,-3,5,9
1908,166784,3471,5564,-4809,0,5,1
1909,166802,3477,5553,-4822,-1,3,6
1910,166830,3481,5550,-4792,-3,5,3
1911,166845,3478,5551,-4793,4,5,5
1912,166857,3495,5561,-4802,2,8,4
1913,166870,3496,5567,-4834,-7,9,1
1914,166882,3482,5559,-4811,-11,10,1
1915,166899,3486,5546,-4783,-13,8,3
1916,166955,3463,5565,-4802,-11,7,1
1917,166982,3486,5546,-4813,-3,6,-2
1918,166995,3509,5551,-4817,-5,3,1
1919,167010,3502,5563,-4805,-11,3,-1
1920,167022,3506,5542,-4786,-7,5,-4
1921,167069,3452,5576,-4813,-6,1,-4
1922,167100,3476,5551,-4788,-6,2,-6
1923,167114,3489,5559,-4814,-4,-1,-2
1924,167127,3486,5560,-4821,-3,-1,-1
1925,167139,3496,5569,-4808,-5,1,-2
1926,167152,3497,5555,-4770,-10,0,-2
1927,167165,3461,5540,-4769,-4,0,1
1928,167177,3467,5540,-4796,-1,1,-1
1929,167205,3485,5578,-4831,-11,-1,2
1930,167258,3453,5580,-4780,-3,-2,-7
1931,167282,3465,5610,-4793,-10,-1,-4
1932,167295,3470,5602,-4793,-14,1,-1
1933,167308,3521,5551,-4787,-6,2,-3
1934,167320,3504,5558,-4814,-5,3,-8
1935,167343,3461,5566,-4763,-8,7,-7
1936,167410,3433,5568,-4828,-10,13,-6
1937,167430,3458,5554,-4800,-8,6,2
1938,167445,3457,5532,-4778,-15,10,4
1939,167459,3460,5540,-4765,-5,4,8
1940,167473,3472,5548,-4789,0,2,11
1941,167486,3497,5542,-4809,5,2,12
1942,167549,3478,5590,-4787,3,5,12
1943,167571,3487,5587,-4751,2,4,15
1944,167586,3509,5588,-4749,6,2,13
1945,167600,3505,5609,-4831,13,2,5
1946,167620,3513,5587,-4798,-5,8,2
1947,167677,3476,5569,-4786,1,6,-7
1948,167701,3462,5557,-4799,-9,6,-10
1949,167715,3456,5555,-4779,-13,6,-8
1950,167728,3476,5558,-4779,-11,5,-5
1951,167740,3481,5564,-4776,-5,3,-7
1952,167754,3465,5559,-4804,2,1,-2
1953,167767,3480,5536,-4811,-2,1,0
1954,167779,3481,5550,-4791,-4,1,1
1955,167819,3477,5564,-4788,0,0,4
1956,167860,3472,5567,-4787,5,0,2
1957,167876,3482,5578,-4801,-3,2,1
1958,167889,3494,5580,-4793,-6,2,0
1959,167901,3497,5579,-4783,-7,2,1
1960,167915,3493,5558,-4756,-3,2,-2
1961,167928,3495,5567,-4763,2,3,-2
1962,167957,3440,5549,-4792,-3,6,-1
1963,168011,3507,5556,-4791,5,2,6
1964,168027,3476,5563,-4802,4,4,4
1965,168039,3466,5558,-4796,-3,4,3
1966,168053,3449,5555,-4772,-7,4,5
1967,168066,3454,5563,-4757,-1,5,5
1968,168078,3456,5580,-4782,4,4,7
1969,168098,3520,5546,-4832,10,1,12
1970,168153,3461,5542,-4720,4,5,6
1971,168175,3441,5594,-4818,9,1,3
1972,168188,3480,5561,-4810,-7,5,8
1973,168200,3513,5563,-4811,-7,4,7
1974,168214,3524,5563,-4792,-5,6,3
1975,168227,3510,5552,-4764,-4,8,3
1976,168248,3489,5544,-4789,4,6,0
1977,168317,3499,5593,-4790,7,4,-2
1978,168331,3563,5575,-4792,4,6,-3
1979,168344,3559,5606,-4794,-7,9,-11
1980,168358,3498,5603,-4789,-14,9,-18
1981,168371,3486,5592,-4760,-14,5,-16
1982,168387,3487,5587,-4774,-10,6,-19
1983,168403,3421,5589,-4773,-3,6,-24
1984,168428,3444,5611,-4801,1,6,-24
1985,168449,3501,5578,-4833,-17,13,-23
1986,168468,3495,5563,-4771,-29,9,-25
1987,168493,3466,5558,-4771,-6,2,-20
1988,168515,3417,5575,-4778,2,0,-13
1989,168529,3437,5569,-4811,3,-2,-9
1990,168574,3502,5558,-4745,-14,-4,-7
1991,168611,3444,5611,-4785,6,-7,-9
1992,168626,3451,5596,-4729,-5,-4,-8
1993,168639,3436,5622,-4676,1,-3,-12
1994,168652,3465,5634,-4766,11,-4,-8
1995,168664,3479,5636,-4843,-2,2,-14
1996,168678,3501,5586,-4802,-19,4,-20
1997,168711,3404,5612,-4723,-17,6,-25
1998,168765,3417,5622,-4814,-12,-1,-27
1999,168779,3431,5606,-4742,-15,3,-25
2000,168792,3471,5577,-4743,-7,-1,-20
2001,168804,3487,5554,-4817,0,-3,-22
2002,168818,3388,5621,-4815,-27,4,-31
2003,168832,3380,5606,-4795,-27,3,-22
2004,168882,3392,5652,-4778,-6,-4,-12
2005,168904,3461,5611,-4755,-12,-3,-9
2006,168929,3347,5599,-4735,-20,4,-10
2007,168942,3391,5607,-4715,-22,4,-4
2008,168956,3435,5612,-4718,-10,5,2
2009,168969,3454,5633,-4811,11,-1,0
2010,169017,3411,5593,-4684,-11,4,2
2011,169051,3420,5644,-4804,-12,10,4
2012,169064,3416,5636,-4745,-21,7,7
2013,169078,3411,5603,-4729,-16,4,9
2014,169092,3383,5605,-4744,-3,6,8
2015,169104,3375,5611,-4776,-2,9,8
2016,169118,3401,5606,-4824,-4,11,12
2017,169131,3429,5638,-4831,-16,10,13
2018,169172,3361,5630,-4665,-16,-7,8
2019,169217,3432,5656,-4878,-36,-18,-4
2020,169231,3409,5613,-4741,-73,-15,-2
2021,169244,3463,5616,-4678,-40,-21,-11
2022,169259,3437,5647,-4659,-35,-20,-12
2023,169273,3436,5650,-4736,-8,-24,-7
2024,169339,3434,5654,-4754,-25,-1,-13
2025,169359,3360,5639,-4647,-29,0,-13
2026,169373,3350,5656,-4640,-10,-2,-10
2027,169385,3345,5664,-4696,13,0,-6
2028,169399,3389,5681,-4769,12,0,-3
2029,169412,3390,5658,-4789,1,3,-4
2030,169424,3398,5615,-4744,-16,11,-3
2031,169464,3420,5675,-4711,15,14,-1
2032,169505,3359,5675,-4771,-2,12,0
2033,169519,3340,5674,-4735,-21,13,-3
2034,169533,3332,5663,-4697,-22,16,0
2035,169547,3355,5612,-4691,-12,15,5
2036,169559,3409,5619,-4724,7,10,5
2037,169573,3426,5640,-4724,12,9,4
2038,169594,3467,5640,-4730,17,6,10
2039,169627,3409,5675,-4763,-2,12,6
2040,169668,3349,5642,-4699,8,11,7
2041,169694,3439,5680,-4746,23,6,12
2042,169708,3433,5669,-4743,23,6,9
2043,169720,3486,5677,-4766,12,8,5
2044,169781,3384,5622,-4730,20,10,2
2045,169804,3392,5644,-4777,20,10,4
2046,169818,3416,5626,-4755,13,11,5
2047,169832,3487,5645,-4765,13,14,5
2048,169845,3473,5654,-4753,10,13,-2
2049,169859,3429,5655,-4743,11,15,0
2050,169873,3409,5631,-4751,21,10,0
2051,169894,3382,5667,-4768,18,10,-1
2052,169957,3400,5637,-4739,-8,14,-7
2053,169978,3402,5580,-4732,4,12,0
2054,169992,3419,5600,-4765,8,10,2
2055,170005,3416,5624,-4785,2,11,3
2056,170021,3415,5626,-4786,-2,9,5
2057,170052,3418,5640,-4769,-5,6,2
2058,170099,3408,5633,-4760,-1,-2,1
2059,170120,3425,5661,-4785,-6,-3,3
2060,170134,3440,5624,-4762,-9,-2,5
2061,170148,3468,5620,-4733,-7,0,-2
2062,170162,3436,5649,-4751,-6,0,-5
2063,170178,3403,5645,-4758,-15,2,-4
2064,170207,3412,5592,-4738,-11,4,3
2065,170259,3433,5608,-4747,-2,-1,16
2066,170278,3369,5624,-4730,1,-1,21
2067,170294,3407,5610,-4723,3,-3,25
2068,170310,3437,5613,-4737,7,-2,23
2069,170329,3446,5644,-4773,10,-2,25
2070,170344,3472,5661,-4785,11,-1,25
2071,170371,3456,5651,-4745,3,-3,10
2072,170433,3430,5626,-4725,-6,-3,0
2073,170454,3444,5629,-4781,-6,-1,-2
2074,170469,3445,5638,-4778,-11,-2,-2
2075,170493,3466,5601,-4738,-7,-5,-1
2076,170548,3405,5595,-4729,-22,0,8
2077,170568,3426,5608,-4754,-10,-4,8
2078,170584,3417,5638,-4754,-6,-5,12
2079,170600,3461,5605,-4752,-4,-8,16
2080,170629,3397,5606,-4708,-5,-4,10
2081,170694,3448,5636,-4742,5,6,11
2082,170710,3476,5634,-4742,8,5,12
2083,170727,3457,5684,-4721,2,9,4
2084,170743,3415,5638,-4742,7,10,5
2085,170759,3425,5639,-4792,1,11,2
2086,170776,3439,5608,-4746,-11,9,2
2087,170806,3479,5640,-4753,5,6,-3
2088,170855,3413,5660,-4775,-8,7,-11
2089,170872,3451,5603,-4766,-14,7,-3
2090,170893,3466,5565,-4714,-9,8,-5
2091,170906,3430,5613,-4743,8,5,-5
2092,170921,3406,5608,-4757,7,4,0
2093,170941,3415,5612,-4748,2,5,4
2094,170996,3458,5598,-4740,-1,4,4
2095,171021,3410,5637,-4703,9,7,8
2096,171035,3443,5635,-4730,14,4,10
2097,171049,3486,5604,-4801,4,4,5
2098,171062,3456,5636,-4809,-4,5,-1
2099,171077,3432,5626,-4773,-11,7,-2
2100,171119,3432,5598,-4794,5,4,6
2101,171156,3447,5612,-4733,-11,9,3
2102,171172,3453,5587,-4749,8,3,10
2103,171186,3457,5625,-4764,8,3,8
2104,171201,3447,5600,-4764,10,2,10
2105,171215,3467,5615,-4760,8,2,10
2106,171229,3434,5625,-4777,4,3,8
2107,171269,3480,5615,-4750,1,2,10
2108,171311,3462,5622,-4745,6,5,3
2109,171332,3476,5633,-4766,1,4,-1
2110,171345,3462,5601,-4767,-2,6,-4
2111,171361,3463,5620,-4748,-6,7,-6
2112,171376,3440,5613,-4770,-5,6,-6
2113,171395,3446,5602,-4757,-6,7,-6
2114,171421,3445,5603,-4752,0,1,-6
2115,171446,3452,5604,-4740,-1,4,2
2116,171497,3464,5596,-4766,4,5,9
2117,171513,3438,5607,-4764,12,3,5
2118,171526,3432,5610,-4777,10,7,4
2119,171555,3481,5618,-4760,2,3,5
2120,171598,3478,5607,-4764,14,5,6
2121,171621,3472,5631,-4826,12,5,-3
2122,171641,3444,5611,-4757,-13,8,-4
2123,171655,3429,5595,-4732,-17,9,-4
2124,171669,3432,5617,-4747,3,6,-3
2125,171682,3455,5605,-4786,6,3,0
2126,171713,3472,5603,-4776,4,1,-5
2127,171748,3463,5613,-4736,-5,4,-9
2128,171781,3480,5628,-4787,6,6,-14
2129,171795,3478,5626,-4808,3,8,-13
2130,171808,3470,5646,-4807,-4,9,-19
2131,171823,3436,5595,-4750,-9,10,-22
2132,171842,3425,5611,-4759,-4,6,-25
2133,171882,3467,5593,-4790,2,6,-24
2134,171923,3391,5609,-4729,-15,6,-27
2135,171938,3392,5593,-4705,-14,7,-21
2136,171952,3451,5603,-4771,9,2,-18
2137,171966,3451,5629,-4815,6,2,-19
2138,171993,3412,5612,-4742,-12,2,-15
2139,172038,3388,5632,-4796,-1,2,-15
2140,172065,3393,5592,-4699,-10,3,-3
2141,172082,3423,5613,-4730,2,3,-3
2142,172098,3461,5617,-4816,9,3,-6
2143,172114,3422,5613,-4756,-7,8,-3
2144,172131,3417,5622,-4730,-13,9,-1
2145,172197,3422,5618,-4762,0,10,14
2146,172223,3435,5606,-4766,3,10,16
2147,172241,3427,5613,-4747,-1,9,18
2148,172257,3413,5632,-4773,1,6,21
2149,172274,3384,5633,-4753,-2,6,21
2150,172295,3443,5599,-4765,9,4,26
2151,172360,3476,5619,-4756,16,4,17
2152,172380,3476,5637,-4788,11,5,5
2153,172395,3459,5648,-4808,5,8,2
2154,172408,3436,5650,-4761,-6,8,-2
2155,172423,3416,5640,-4697,-9,10,-2
2156,172446,3466,5610,-4744,9,9,-5
2157,172497,3428,5583,-4729,-9,14,-8
2158,172520,3418,5600,-4802,0,12,-7
2159,172537,3441,5584,-4833,-2,8,-4
2160,172552,3444,5607,-4801,-8,5,0
2161,172565,3424,5595,-4774,-6,5,4
2162,172580,3438,5573,-4749,0,1,8
2163,172599,3402,5604,-4776,5,-2,6
2164,172629,3446,5589,-4755,-7,-1,18
2165,172658,3469,5592,-4782,7,-2,15
2166,172704,3438,5599,-4727,-6,4,10
2167,172724,3436,5635,-4753,-4,4,5
2168,172749,3434,5620,-4757,-4,2,6
2169,172802,3472,5591,-4787,-10,7,-3
2170,172831,3469,5613,-4734,-14,10,2
2171,172847,3413,5584,-4718,0,6,2
2172,172862,3409,5601,-4742,8,6,3
2173,172884,3453,5583,-4793,-4,8,5
2174,172948,3445,5620,-4786,15,3,9
2175,172964,3433,5619,-4795,5,6,8
2176,172981,3446,5631,-4773,-5,5,9
2177,172999,3461,5617,-4753,-11,7,8
2178,173017,3475,5581,-4735,1,5,10
2179,173032,3476,5584,-4738,5,4,9
2180,173058,3446,5645,-4790,-1,5,3
2181,173089,3489,5615,-4746,-2,3,5
2182,173116,3472,5606,-4775,-4,5,0
2183,173152,3455,5572,-4728,-9,5,2
2184,173166,3456,5593,-4741,-4,1,2
2185,173187,3438,5597,-4764,-5,3,4
2186,173215,3450,5591,-4754,-8,3,8
2187,173250,3457,5589,-4761,4,0,16
2188,173274,3484,5573,-4773,6,0,16
2189,173288,3475,5609,-4752,7,-2,14
2190,173303,3456,5635,-4727,3,-1,14
2191,173318,3476,5620,-4737,7,-1,15
2192,173333,3508,5616,-4794,9,0,12
2193,173395,3439,5620,-4747,1,4,-1
2194,173425,3496,5592,-4767,-2,0,5
2195,173442,3510,5600,-4774,1,2,1
2196,173459,3484,5578,-4743,3,4,3
2197,173475,3485,5593,-4740,-3,6,0
2198,173502,3457,5590,-4752,-5,8,5
2199,173550,3441,5618,-4770,11,6,9
2200,173581,3521,5589,-4798,-2,8,9
2201,173596,3489,5585,-4742,-16,8,4
2202,173617,3459,5582,-4725,4,5,6
2203,173641,3465,5596,-4763,10,5,9
2204,173696,3529,5592,-4774,-18,8,4
2205,173717,3475,5567,-4697,-3,4,2
2206,173732,3448,5599,-4708,5,3,2
2207,173746,3452,5581,-4761,14,3,8
2208,173762,3484,5600,-4789,8,5,5
2209,173778,3483,5600,-4782,-3,11,7
2210,173814,3557,5559,-4732,0,9,3
2211,173861,3435,5571,-4733,-3,7,8
2212,173879,3475,5603,-4772,10,2,9
2213,173894,3479,5568,-4789,12,3,13
2214,173908,3520,5552,-4772,9,2,16
2215,173924,3535,5574,-4769,1,2,9
2216,173946,3502,5556,-4720,7,3,17
2217,173990,3474,5609,-4771,12,3,14
2218,174027,3543,5588,-4747,-2,9,6
2219,174044,3546,5608,-4747,6,11,3
2220,174060,3525,5594,-4762,5,9,0
2221,174076,3484,5594,-4783,1,8,-5
2222,174112,3492,5578,-4776,-2,13,-5
2223,174158,3480,5562,-4770,-9,12,-8
2224,174174,3492,5553,-4735,-2,7,-2
2225,174188,3487,5564,-4750,2,5,-5
2226,174204,3474,5574,-4770,3,3,1
2227,174219,3487,5561,-4776,4,2,3
2228,174251,3538,5553,-4776,-1,4,7
2229,174304,3493,5578,-4728,8,1,4
2230,174322,3475,5604,-4767,10,2,7
2231,174340,3496,5582,-4807,6,3,8
2232,174357,3572,5588,-4756,-7,3,-1
2233,174379,3490,5587,-4726,0,5,-6
2234,174419,3460,5585,-4756,0,6,-5
2235,174468,3498,5555,-4796,-10,6,-2
2236,174484,3507,5539,-4758,-10,4,1
2237,174499,3485,5552,-4735,-1,2,4
2238,174514,3491,5541,-4752,4,-1,5
2239,174528,3494,5558,-4793,7,-1,10
2240,174561,3487,5552,-4740,5,0,12
2241,174620,3520,5577,-4790,-10,4,5
2242,174638,3490,5558,-4736,-11,3,7
2243,174653,3465,5559,-4737,10,-4,4
2244,174667,3460,5567,-4767,14,-3,5
2245,174689,3489,5587,-4818,3,-1,10
2246,174760,3521,5563,-4776,-5,1,9
2247,174776,3490,5589,-4761,-8,-1,8
2248,174791,3498,5541,-4764,-3,-1,8
2249,174807,3531,5576,-4813,-2,-1,4
2250,174822,3515,5579,-4802,-24,2,1
2251,174884,3518,5574,-4816,10,-1,6
2252,174908,3513,5584,-4787,-14,3,1
2253,174924,3538,5549,-4728,-13,3,3
2254,174939,3537,5572,-4718,-5,3,0
2255,174954,3492,5543,-4791,6,3,0
2256,174968,3495,5558,-4807,4,0,0
2257,174992,3493,5576,-4789,-6,1,1
2258,175065,3525,5534,-4743,-5,5,4
2259,175081,3520,5537,-4734,0,3,2
2260,175097,3514,5577,-4732,7,4,1
2261,175111,3526,5591,-4726,8,6,1
2262,175127,3557,5589,-4784,18,7,-2
2263,175147,3548,5602,-4784,2,14,-12
2264,175174,3502,5588,-4755,-13,14,-15
2265,175201,3478,5573,-4762,2,13,-14
2266,175232,3499,5564,-4803,3,9,-9
2267,175255,3522,5539,-4765,-1,10,-7
2268,175271,3537,5544,-4787,-5,5,-3
2269,175291,3510,5537,-4761,-4,7,0
2270,175330,3436,5554,-4762,1,4,8
2271,175380,3560,5575,-4781,-4,2,10
2272,175396,3543,5579,-4775,-9,3,8
2273,175411,3479,5530,-4725,-1,4,14
2274,175427,3504,5554,-4744,4,1,13
2275,175492,3569,5579,-4804,-5,9,1
2276,175513,3499,5541,-4768,-19,10,-4
2277,175528,3499,5536,-4718,-12,7,2
2278,175544,3574,5542,-4743,9,4,6
2279,175559,3554,5552,-4787,17,2,1
2280,175574,3497,5575,-4792,8,3,-2
2281,175593,3513,5579,-4773,-4,8,-1
2282,175659,3529,5594,-4771,2,4,-14
2283,175689,3510,5579,-4798,-3,8,-16
2284,175705,3515,5561,-4771,-20,10,-21
2285,175721,3506,5556,-4764,-24,9,-22
2286,175743,3499,5562,-4741,-12,7,-21
2287,175776,3514,5534,-4767,-12,-7,-6
2288,175801,3492,5570,-4775,-8,1,-10
2289,175836,3492,5577,-4756,-11,-1,-2
2290,175851,3479,5570,-4733,-8,-3,0
2291,175867,3501,5552,-4712,2,-6,9
2292,175883,3502,5563,-4740,10,-7,8
2293,175950,3556,5583,-4818,6,1,6
2294,175970,3565,5609,-4775,-12,2,-6
2295,175986,3492,5569,-4728,-13,6,-5
2296,176002,3430,5578,-4700,5,3,-8
2297,176020,3439,5596,-4805,15,5,-4
2298,176043,3544,5593,-4841,-6,4,0
2299,176098,3504,5560,-4765,7,1,-2
2300,176122,3445,5564,-4756,-7,2,5
2301,176138,3460,5557,-4744,-3,2,7
2302,176154,3503,5600,-4771,12,2,8
2303,176169,3506,5580,-4799,15,2,9
2304,176193,3544,5586,-4756,-5,5,1
2305,176257,3482,5570,-4774,2,-2,7
2306,176276,3510,5560,-4774,2,4,7
2307,176291,3558,5565,-4764,1,5,11
2308,176307,3535,5565,-4742,-9,10,0
2309,176323,3531,5571,-4737,-8,13,0
2310,176355,3475,5568,-4749,7,10,1
2311,176413,3544,5543,-4761,-6,11,5
2312,176430,3539,5601,-4781,-2,10,-2
2313,176446,3499,5537,-4774,6,5,3
2314,176462,3519,5565,-4755,10,4,1
2315,176478,3513,5570,-4796,12,7,-2
2316,176511,3548,5588,-4775,-2,7,-7
2317,176575,3454,5585,-4809,-6,-7,-13
2318,176592,3474,5524,-4755,5,-19,1
2319,176618,3555,5570,-4793,25,-19,-3
2320,176644,3587,5573,-4804,8,-11,-5
2321,176664,3535,5583,-4730,-6,-6,-16
2322,176725,3464,5616,-4787,23,-8,-28
2323,176745,3455,5618,-4857,7,-3,-36
2324,176761,3546,5602,-4834,-25,-6,-38
2325,176777,3550,5593,-4769,-27,-7,-41
2326,176843,3473,5576,-4842,-17,6,-40
2327,176864,3509,5543,-4756,-26,7,-44
2328,176880,3472,5536,-4734,-14,10,-44
2329,176896,3429,5549,-4776,8,5,-35
2330,176911,3401,5560,-4797,12,4,-34
2331,176927,3347,5585,-4772,2,6,-21
2332,176948,3365,5604,-4798,-4,11,-18
2333,176969,3403,5572,-4784,-8,11,-13
2334,177002,3443,5562,-4714,-1,16,-10
2335,177032,3503,5617,-4799,22,17,-1
2336,177071,3398,5565,-4789,-3,23,3
2337,177096,3375,5531,-4769,-4,19,22
2338,177159,3460,5616,-4856,21,2,32
2339,177175,3472,5630,-4826,9,6,34
2340,177190,3530,5590,-4755,11,6,34
2341,177206,3525,5596,-4846,15,7,18
2342,177222,3480,5607,-4844,15,11,12
2343,177245,3461,5623,-4680,4,17,6
2344,177291,3482,5585,-4814,7,20,-11
2345,177321,3462,5547,-4783,-6,25,-25
2346,177340,3469,5534,-4794,6,24,-22
2347,177356,3462,5562,-4791,5,24,-22
2348,177371,3428,5565,-4832,6,21,-11
2349,177387,3458,5543,-4857,5,19,-9
2350,177459,3458,5558,-4755,5,6,4
2351,177475,3463,5574,-4848,13,2,5
2352,177490,3475,5589,-4880,0,2,2
2353,177506,3474,5574,-4833,-10,4,3
2354,177524,3462,5572,-4729,-10,2,2
2355,177544,3436,5572,-4761,5,2,2
2356,177572,3433,5570,-4827,-12,-2,8
2357,177644,3495,5572,-4834,-11,5,12
2358,177662,3498,5564,-4815,-16,1,14
2359,177678,3465,5568,-4769,-13,2,9
2360,177712,3398,5592,-4814,-14,-4,9
2361,177757,3534,5571,-4791,-21,-4,3
2362,177772,3503,5577,-4779,-22,-5,1
2363,177788,3487,5574,-4744,-15,-3,0
2364,177804,3486,5581,-4747,-13,-3,-2
2365,177820,3466,5606,-4794,-15,-3,-5
2366,177836,3459,5572,-4789,-15,-1,-2
2367,177878,3469,5601,-4791,-18,-2,-7
2368,177922,3440,5575,-4757,-32,-6,-3
2369,177938,3439,5573,-4757,-25,-8,1
2370,177953,3456,5568,-4768,-18,-10,3
2371,177970,3477,5599,-4794,-12,-10,3
2372,177986,3471,5590,-4804,-18,-8,2
2373,178038,3433,5590,-4759,-14,-8,10
2374,178074,3460,5585,-4777,-17,-6,8
2375,178090,3452,5587,-4743,-21,-9,8
2376,178106,3452,5594,-4744,-17,-8,9
2377,178122,3478,5585,-4746,-7,-10,11
2378,178145,3482,5628,-4735,-2,-6,9
2379,178213,3490,5624,-4755,-13,-4,8
2380,178231,3449,5613,-4723,-3,-5,4
2381,178247,3439,5617,-4714,-3,-3,5
2382,178263,3435,5632,-4774,-3,-2,4
2383,178284,3444,5619,-4768,-13,2,5
2384,178345,3450,5621,-4770,9,4,9
2385,178365,3472,5609,-4733,-4,5,11
2386,178381,3478,5619,-4737,-5,4,9
2387,178397,3450,5593,-4758,-1,2,7
2388,178412,3430,5602,-4745,3,1,6
2389,178428,3428,5577,-4747,9,2,8
2390,178472,3500,5623,-4798,3,6,3
2391,178524,3455,5604,-4762,13,8,-4
2392,178542,3422,5600,-4794,2,8,-5
2393,178560,3448,5610,-4763,-7,11,-6
2394,178578,3466,5590,-4761,3,8,-4
2395,178631,3457,5594,-4771,-3,3,-1
2396,178677,3466,5573,-4772,0,4,2
2397,178693,3467,5584,-4755,1,3,0
2398,178710,3437,5597,-4734,2,2,3
2399,178728,3461,5580,-4763,11,3,7
2400,178755,3490,5605,-4781,6,5,3
2401,178791,3451,5610,-4717,-1,8,1
2402,178815,3456,5589,-4755,8,7,3
2403,178842,3449,5589,-4777,-4,10,3
2406,178943,3466,5590,-4796,10,9,14
2404,178866,3465,5582,-4753,-4,9,3
2405,178883,3481,5562,-4760,9,8,7
2406,178943,3466,5590,-4796,10,9,14
2407,178967,3489,5583,-4773,14,4,14
2408,178984,3477,5607,-4734,15,5,10
2409,179000,3452,5585,-4746,17,6,10
2410,179015,3475,5596,-4776,16,7,8
2411,179040,3482,5596,-4804,3,10,9
2412,179104,3452,5570,-4805,0,12,1
2413,179125,3473,5544,-4793,0,10,3
2414,179141,3479,5549,-4785,0,10,3
2415,179157,3437,5578,-4803,0,4,1
2416,179172,3438,5572,-4794,-6,4,5
2417,179238,3490,5569,-4779,-9,-2,9
2418,179261,3472,5577,-4719,-2,0,7
2419,179277,3479,5587,-4766,9,-4,7
2420,179292,3473,5585,-4792,12,-3,7
2421,179308,3504,5602,-4809,-2,0,2
2422,179324,3486,5571,-4804,-6,2,3
2423,179355,3509,5560,-4753,-1,4,1
2424,179393,3466,5574,-4802,-3,5,4
2425,179429,3471,5556,-4779,1,5,2
2426,179447,3460,5562,-4780,-1,2,3
2427,179466,3487,5574,-4787,4,2,6
2428,179482,3491,5576,-4787,2,0,3
2429,179544,3503,5569,-4772,5,7,2
2430,179573,3497,5587,-4790,5,7,-3
2431,179589,3472,5582,-4771,1,8,-4
2432,179608,3486,5565,-4746,2,8,-2
2433,179628,3486,5589,-4790,3,10,-5
2434,179659,3526,5561,-4838,-3,13,2
2435,179715,3535,5487,-4825,29,-1,0
2436,179734,3470,5624,-4888,1,9,-15
2437,179750,3474,5618,-4794,-12,11,-5
2438,179766,3553,5570,-4685,-13,6,-11
2439,179790,3492,5615,-4805,23,1,-22
2440,179845,3470,5589,-4791,-5,8,-24
2441,179880,3487,5563,-4763,0,0,-15
2442,179895,3442,5559,-4833,11,-5,-11
2443,179914,3458,5531,-4822,5,-4,-5
2444,179931,3466,5509,-4814,-2,-7,-2
2445,179964,3469,5526,-4771,2,-6,8
2446,179993,3422,5598,-4828,9,-10,12
2447,180015,3470,5582,-4811,4,-13,20
2448,180047,3469,5581,-4737,2,-9,7
2449,180063,3467,5552,-4746,8,-7,10
2450,180079,3509,5612,-4807,7,-2,0
2451,180137,3496,5568,-4795,10,4,-1
2452,180166,3487,5563,-4811,2,4,-11
2453,180182,3459,5563,-4798,-7,9,-11
2454,180198,3450,5573,-4781,-6,9,-9
2455,180213,3406,5568,-4775,-5,8,-10
2456,180239,3508,5558,-4818,4,6,-4
2457,180309,3415,5540,-4747,-6,10,-5
2458,180327,3435,5578,-4810,3,9,-3
2459,180343,3482,5569,-4818,1,8,5
2460,180359,3501,5556,-4805,0,8,4
2461,180374,3498,5550,-4776,1,10,2
2462,180418,3462,5571,-4773,5,12,3
2463,180468,3488,5579,-4841,-3,12,7
2464,180484,3421,5561,-4799,-14,12,7
2465,180501,3435,5534,-4783,-9,8,14
2466,180519,3477,5546,-4786,7,1,16
2467,180545,3431,5572,-4792,10,-5,17
2468,180568,3487,5588,-4811,10,1,18
2469,180613,3530,5600,-4808,-2,5,4
2470,180658,3434,5578,-4796,16,7,-5
2471,180679,3491,5610,-4854,-4,12,-10
2472,180707,3511,5536,-4759,-14,14,-13
2473,180752,3460,5529,-4830,1,13,-9
2474,180788,3438,5563,-4785,-1,7,-3
2475,180805,3466,5569,-4799,4,7,-1
2476,180824,3506,5533,-4813,-1,7,6
2477,180863,3471,5540,-4783,-6,1,7
2478,180915,3481,5587,-4806,1,2,11
2479,180933,3543,5555,-4796,-3,3,13
2480,180950,3529,5558,-4774,-5,5,2
2481,180966,3462,5560,-4787,1,6,2
2482,180985,3468,5562,-4828,5,2,5
2483,181057,3542,5512,-4783,3,-3,13
2484,181077,3524,5560,-4797,6,-2,4
2485,181093,3478,5555,-4826,6,-1,7
2486,181109,3488,5568,-4821,2,-1,7
2487,181125,3450,5553,-4765,-7,0,5
2488,181149,3483,5598,-4803,5,0,5
2489,181215,3468,5536,-4770,-9,2,-2
2490,181234,3473,5538,-4770,6,3,0
2491,181251,3450,5575,-4805,9,2,-2
2492,181267,3464,5550,-4847,-2,6,3
2493,181290,3504,5518,-4795,-20,6,0
2494,181346,3455,5547,-4813,9,-1,10
2495,181367,3495,5555,-4823,1,1,12
2496,181383,3502,5554,-4806,0,5,13
2497,181398,3535,5533,-4769,6,6,13
2498,181414,3512,5549,-4778,9,6,9
2499,181443,3512,5550,-4823,15,2,15
2500,181500,3540,5543,-4873,19,8,8
2501,181517,3522,5571,-4851,-8,6,-1
2502,181534,3530,5554,-4798,-7,7,0
2503,181550,3528,5526,-4825,-1,4,-1
2504,181566,3472,5555,-4717,-6,8,-13
2505,181588,3514,5613,-4898,18,6,-9
2506,181632,3508,5475,-4777,-17,7,-8
2507,181673,3472,5528,-4831,-4,6,0
2508,181693,3472,5535,-4794,-10,3,9
2509,181709,3479,5561,-4798,-2,2,8
2510,181725,3532,5538,-4830,6,2,16
2511,181757,3485,5523,-4773,-21,4,8
2512,181802,3463,5555,-4824,3,0,8
2513,181827,3516,5574,-4809,-1,2,8
2514,181843,3534,5520,-4789,-2,3,9
2515,181858,3571,5516,-4800,2,4,8
2516,181875,3516,5542,-4836,-6,9,-3
2517,181906,3476,5512,-4766,-4,10,6
2518,181927,3470,5541,-4810,12,5,7
2519,181960,3523,5493,-4830,11,4,18
2520,181991,3599,5533,-4836,4,6,6
2521,182008,3493,5592,-4791,-7,4,5
2522,182025,3463,5514,-4713,9,3,16
2523,182046,3497,5568,-4872,30,-1,5
2524,182076,3566,5533,-4810,-9,5,4
2525,182116,3534,5532,-4754,6,4,-6
2526,182149,3503,5546,-4874,-1,6,-7
2527,182167,3490,5521,-4821,-17,9,-6
2528,182190,3560,5506,-4773,-10,6,-7
2529,182241,3496,5531,-4790,-5,2,2
2530,182269,3511,5523,-4833,12,-1,6
2531,182286,3529,5541,-4871,9,-1,5
2532,182302,3509,5541,-4818,-6,3,3
2533,182317,3511,5527,-4768,-6,4,3
2534,182352,3503,5553,-4830,11,0,1
2535,182405,3539,5528,-4826,0,4,1
2536,182421,3531,5512,-4830,-5,5,-5
2537,182436,3513,5518,-4802,-5,7,-4
2538,182452,3509,5517,-4782,-2,7,1
2539,182468,3483,5526,-4790,-2,6,2
2540,182491,3495,5548,-4848,4,3,7
2541,182568,3495,5532,-4810,0,6,5
2542,182584,3493,5513,-4812,-5,10,10
2543,182599,3503,5502,-4817,-3,6,10
2544,182623,3506,5536,-4833,12,2,8
2545,182652,3568,5500,-4842,8,0,9
2546,182710,3508,5506,-4784,2,0,11
2547,182727,3487,5556,-4856,10,-4,11
2548,182743,3491,5579,-4865,3,-1,11
2549,182758,3578,5534,-4856,-15,2,14
2550,182775,3544,5528,-4794,-24,0,3
2551,182803,3532,5502,-4757,-8,1,7
2552,182866,3532,5547,-4818,-12,5,3
2553,182882,3580,5515,-4800,-12,2,1
2554,182897,3552,5541,-4810,-3,1,-3
2555,182913,3530,5526,-4812,2,0,-2
2556,182936,3507,5545,-4830,-1,-1,-5
2557,182964,3523,5535,-4803,-6,-2,-1
2558,182982,3540,5555,-4797,-1,2,-6
2559,183033,3510,5559,-4807,-6,9,-18
2560,183049,3474,5546,-4770,-12,10,-17
2561,183065,3493,5538,-4789,-4,8,-19
2562,183080,3505,5565,-4840,0,6,-19
2563,183126,3495,5494,-4805,-19,5,-20
2564,183172,3430,5535,-4813,-3,-4,-2
2565,183189,3440,5511,-4806,-4,-5,4
2566,183205,3506,5554,-4789,3,-5,6
2567,183220,3531,5529,-4799,10,-5,9
2568,183255,3524,5557,-4759,-8,0,2
2569,183277,3510,5547,-4749,7,-1,-3
2570,183303,3506,5569,-4831,15,-2,-4
2571,183332,3502,5590,-4828,0,4,-11
2572,183348,3570,5541,-4800,-4,8,-13
2573,183364,3485,5545,-4818,-8,11,-24
2574,183379,3446,5549,-4819,-9,12,-21
2575,183413,3445,5535,-4798,-3,11,-13
2576,183468,3525,5526,-4846,-11,10,-13
2577,183485,3482,5545,-4811,-20,9,-14
2578,183500,3472,5519,-4787,-11,5,-2
2579,183518,3452,5549,-4799,6,1,-1
2580,183552,3469,5598,-4833,10,0,-3
2581,183626,3493,5540,-4794,6,1,-14
2582,183643,3462,5587,-4807,1,3,-19
2583,183661,3462,5615,-4847,-7,2,-23
2584,183686,3529,5540,-4794,-17,2,-19
2585,183760,3413,5548,-4762,-11,-1,-28
2586,183779,3474,5566,-4821,3,-5,-26
2587,183797,3462,5599,-4846,-2,-1,-34
2588,183814,3483,5572,-4773,-5,-5,-33
2589,183832,3421,5595,-4806,0,-1,-40
2590,183896,3457,5520,-4829,29,-13,-5
2591,183921,3505,5512,-4871,33,-11,-3
2592,183939,3434,5614,-4878,-1,1,-10
2593,183957,3369,5589,-4782,-21,-2,-1
2594,183974,3368,5588,-4737,-4,-6,3
2595,184019,3397,5607,-4873,4,2,3
2596,184061,3491,5523,-4777,-30,14,7
2597,184077,3408,5481,-4722,-11,22,22
2598,184093,3404,5507,-4762,-1,21,25
2599,184109,3363,5544,-4889,-2,23,36
2600,184125,3384,5591,-4929,-18,14,46
2601,184148,3459,5555,-4783,-24,2,52
2602,184215,3482,5658,-4845,-14,-7,26
2603,184237,3518,5599,-4743,-12,-2,21
2604,184254,3502,5582,-4765,-6,2,12
2605,184271,3477,5570,-4801,6,4,7
2606,184314,3464,5570,-4765,-14,13,-5
2607,184359,3468,5584,-4875,1,13,-9
2608,184379,3483,5530,-4813,-24,13,-7
2609,184396,3456,5535,-4781,-26,15,-9
2610,184415,3412,5532,-4781,-10,14,-2
2611,184432,3453,5545,-4846,-7,7,8
2612,184464,3480,5584,-4854,-2,-7,9
2613,184487,3445,5539,-4783,-7,-6,12
2614,184541,3501,5610,-4808,-11,2,7
2615,184557,3477,5587,-4771,-16,3,6
2616,184573,3495,5572,-4789,3,2,1
2617,184642,3474,5581,-4757,-7,8,-7
2618,184666,3450,5580,-4811,7,6,-6
2619,184681,3458,5578,-4817,0,6,-7
2620,184697,3474,5568,-4787,-15,13,-7
2621,184713,3507,5573,-4788,-20,11,-6
2622,184729,3495,5582,-4765,-16,13,-6
2623,184754,3442,5563,-4751,10,8,-3
2624,184822,3487,5572,-4748,-2,11,10
2625,184838,3525,5555,-4791,9,7,9
2626,184854,3500,5566,-4792,13,9,6
2627,184870,3460,5572,-4820,7,8,10
2628,184894,3432,5580,-4766,-4,9,11
2629,184958,3507,5571,-4811,2,8,13
2630,184975,3477,5563,-4767,-3,8,10
2631,184992,3497,5565,-4750,7,8,15
2632,185008,3489,5581,-4827,19,8,10
2633,185025,3477,5586,-4855,8,9,9
2634,185065,3481,5560,-4741,-10,11,8
2635,185108,3461,5560,-4799,-8,1,11
2636,185125,3488,5556,-4788,-6,-1,13
2637,185141,3502,5570,-4797,1,-6,10
2638,185157,3520,5561,-4810,2,-5,10
2639,185173,3526,5547,-4786,-6,0,10
2640,185189,3491,5571,-4786,-11,0,5
2641,185219,3487,5565,-4781,-14,2,6
2642,185258,3516,5559,-4819,-8,-4,6
2643,185300,3534,5581,-4740,-4,0,-4
2644,185316,3521,5581,-4783,-2,5,-11
2645,185340,3495,5602,-4802,-8,6,-15
2646,185392,3527,5568,-4843,14,12,-15
2647,185412,3527,5601,-4883,7,10,-18
2648,185428,3499,5578,-4789,-14,9,-15
2649,185444,3456,5551,-4686,-1,7,-12
2650,185459,3447,5535,-4734,10,7,-11
2651,185475,3477,5566,-4861,20,10,-10
2652,185498,3496,5579,-4859,-16,13,-9
2653,185541,3486,5559,-4768,11,4,-3
2654,185571,3481,5558,-4844,-1,6,1
2655,185597,3468,5538,-4754,-15,6,6
2656,185616,3467,5554,-4754,-8,2,7
2657,185640,3452,5561,-4804,5,0,13
2658,185700,3496,5575,-4748,-1,-2,18
2659,185728,3490,5591,-4809,8,-1,15
2660,185745,3485,5601,-4815,-7,0,16
2661,185760,3471,5545,-4774,-15,2,20
2662,185776,3485,5527,-4740,-15,4,19
2663,185809,3547,5600,-4838,11,-2,15
2664,185843,3512,5585,-4771,-23,1,11
2665,185875,3461,5576,-4752,-7,1,8
2666,185891,3507,5577,-4802,2,1,7
2667,185907,3519,5585,-4820,-4,1,4
2668,185922,3529,5574,-4788,-10,3,1
2669,185946,3534,5588,-4735,-13,4,-5
2670,186006,3466,5558,-4802,-17,6,-7
2671,186027,3473,5543,-4726,-9,8,-1
2672,186045,3517,5580,-4779,10,3,-4
2673,186062,3505,5580,-4834,1,4,-3
2674,186079,3490,5573,-4813,-12,4,-4
2675,186125,3524,5577,-4789,20,-1,3
2676,186163,3514,5574,-4783,-11,6,-1
2677,186179,3510,5586,-4744,-16,9,-4
2678,186195,3482,5584,-4717,-1,4,-4
2679,186211,3476,5583,-4779,10,5,-5
2680,186227,3464,5579,-4833,2,5,-3
2681,186252,3502,5550,-4755,-10,7,0
2682,186310,3505,5561,-4764,-7,7,2
2683,186335,3472,5554,-4715,1,8,1
2684,186351,3454,5561,-4793,10,6,2
2685,186367,3494,5562,-4812,-2,9,6
2686,186393,3550,5577,-4780,-3,4,8
2687,186425,3482,5589,-4737,11,3,2
2688,186469,3543,5570,-4792,-4,11,6
2689,186488,3532,5550,-4769,4,11,3
2690,186503,3534,5559,-4756,9,10,1
2691,186521,3484,5556,-4775,14,13,2
2692,186571,3499,5553,-4771,9,12,7
2693,186595,3532,5535,-4786,13,10,9
2694,186619,3485,5571,-4756,4,13,4
2695,186647,3530,5550,-4792,7,11,10
2696,186670,3531,5575,-4808,4,10,7
2697,186701,3499,5551,-4753,5,9,9
2698,186764,3545,5524,-4767,9,8,12
2699,186785,3581,5568,-4791,23,12,5
2700,186803,3453,5557,-4827,13,14,1
2701,186820,3493,5573,-4806,4,8,6
2702,186856,3561,5498,-4770,23,6,11
2703,186899,3507,5575,-4810,-15,12,-2
2704,186915,3491,5554,-4754,-16,8,2
2705,186931,3503,5563,-4746,-9,5,1
2706,186947,3522,5551,-4818,1,3,2
2707,186962,3540,5535,-4814,-5,3,1
2708,186983,3562,5527,-4800,-7,5,1
2709,187016,3534,5545,-4763,-6,6,1
2710,187076,3549,5548,-4790,3,5,3
2711,187092,3531,5554,-4782,-3,5,4
2712,187108,3546,5530,-4752,0,4,8
2713,187123,3536,5522,-4743,9,6,7
2714,187147,3542,5577,-4862,8,3,1
2715,187207,3551,5547,-4786,1,4,-2
2716,187231,3522,5532,-4818,-12,4,-1
2717,187247,3525,5527,-4791,-18,3,-1
2718,187262,3509,5514,-4748,-9,1,1
2719,187279,3546,5550,-4774,2,1,-2
2720,187302,3529,5546,-4815,0,4,2
2721,187337,3551,5531,-4797,-14,3,1
2722,187373,3503,5551,-4773,5,-3,2
2723,187396,3530,5540,-4788,3,0,4
2724,187412,3565,5549,-4810,-11,4,3
2725,187428,3570,5533,-4784,-14,5,3
2726,187465,3530,5546,-4778,8,6,0
2727,187510,3543,5549,-4778,-22,8,-3
2728,187526,3547,5544,-4754,-11,8,-7
2729,187541,3523,5553,-4773,-5,7,-5
2730,187557,3542,5538,-4796,-6,6,0
2731,187573,3570,5556,-4807,-12,3,0
2732,187631,3531,5543,-4788,-5,0,3
2733,187671,3479,5527,-4744,-10,-1,8
2734,187691,3474,5506,-4766,2,-3,20
2735,187708,3552,5494,-4738,16,-4,27
2736,187725,3631,5557,-4751,33,-3,25
2737,187748,3615,5591,-4786,30,4,19
2738,187800,3534,5539,-4764,14,16,12
2739,187830,3555,5563,-4811,28,9,2
2740,187845,3568,5567,-4828,23,11,0
2741,187861,3566,5553,-4820,4,12,-4
2742,187877,3567,5530,-4794,-1,11,-5
2743,187908,3539,5508,-4804,3,9,-7
2744,187936,3533,5508,-4826,8,4,-3
2745,187967,3545,5497,-4785,-2,0,4
2746,187990,3537,5484,-4778,2,-2,12
2747,188007,3563,5491,-4780,6,-3,11
2748,188022,3562,5523,-4814,8,-4,12
2749,188043,3554,5532,-4809,-1,-4,13
2750,188073,3541,5535,-4776,-3,-3,7
2751,188137,3591,5536,-4771,-2,6,-6
2752,188154,3583,5540,-4796,4,6,-16
2753,188171,3566,5542,-4795,7,8,-19
2754,188187,3582,5538,-4792,1,11,-20
2755,188236,3543,5568,-4821,-8,10,-34
2756,188269,3531,5535,-4811,0,3,-37
2757,188284,3484,5555,-4803,0,0,-39
2758,188300,3500,5548,-4811,-4,-2,-38
2759,188316,3538,5547,-4769,-7,-4,-36
2760,188340,3561,5549,-4807,-1,-1,-39
2761,188389,3501,5522,-4750,-19,2,-44
2762,188423,3436,5548,-4800,-4,4,-40
2763,188441,3441,5549,-4847,-5,-4,-33
2764,188458,3446,5567,-4821,-17,-7,-29
2765,188474,3464,5560,-4778,-16,-9,-25
2766,188500,3532,5548,-4845,-1,-15,-23
2767,188538,3458,5540,-4721,-16,-7,-24
2768,188563,3452,5548,-4786,2,-4,-20
2769,188586,3478,5559,-4851,0,0,-20
2770,188616,3443,5566,-4691,-19,-5,-4
2771,188665,3416,5542,-4850,1,0,-8
2772,188706,3456,5549,-4747,-7,3,-1
2773,188724,3463,5594,-4774,10,3,3
2774,188741,3461,5545,-4816,14,1,7
2775,188760,3427,5595,-4852,-7,6,-1
2776,188777,3401,5579,-4818,-17,10,1
2777,188816,3435,5558,-4804,2,3,14
2778,188853,3461,5530,-4825,-6,-3,34
2779,188883,3437,5561,-4774,-5,-3,35
2780,188900,3439,5559,-4751,3,-5,39
2781,188916,3503,5574,-4789,17,-5,40
2782,188935,3532,5574,-4810,12,-3,35
2783,188963,3509,5622,-4791,6,4,18
2784,189002,3485,5639,-4800,0,9,1
2785,189042,3478,5575,-4817,-14,12,-13
2786,189060,3440,5538,-4781,-15,15,-14
2787,189078,3496,5535,-4835,-4,11,-7
2788,189121,3485,5538,-4808,-11,6,-3
2789,189161,3409,5558,-4779,3,3,10
2790,189181,3504,5571,-4836,11,0,18
2791,189197,3535,5564,-4821,0,5,8
2792,189213,3518,5603,-4808,-5,2,3
2793,189229,3492,5554,-4753,-4,4,7
2794,189270,3472,5571,-4802,-2,6,0
2795,189319,3491,5538,-4766,-2,8,0
2796,189336,3495,5553,-4760,-1,9,-1
2797,189352,3488,5549,-4817,-2,9,-2
2798,189368,3477,5566,-4816,-6,6,1
2799,189404,3471,5527,-4774,17,4,8
2800,189450,3472,5522,-4750,-14,14,16
2801,189465,3499,5513,-4750,-4,8,16
2802,189481,3446,5576,-4813,16,2,11
2803,189497,3452,5561,-4821,14,2,19
2804,189513,3523,5569,-4825,14,1,17
2805,189544,3529,5536,-4779,-11,7,10
2806,189587,3488,5551,-4769,16,7,9
2807,189631,3534,5556,-4844,6,9,5
2808,189646,3527,5558,-4802,-8,14,-2
2809,189662,3518,5534,-4763,-11,15,-2
2810,189678,3503,5514,-4760,5,15,2
2811,189723,3496,5563,-4836,3,13,-3
2812,189763,3540,5537,-4817,-2,9,-1
2813,189781,3493,5533,-4807,-1,9,-4
2814,189797,3514,5501,-4791,6,7,5
2815,189813,3528,5504,-4818,12,7,4
2816,189829,3471,5567,-4812,10,6,2
2817,189852,3517,5548,-4827,2,6,7
2818,189904,3566,5553,-4810,13,2,1
2819,189935,3508,5566,-4812,6,3,-3
2820,189952,3484,5572,-4772,-3,6,-6
2821,189967,3526,5553,-4799,3,6,-5
2822,190001,3548,5518,-4822,-6,9,-12
2823,190046,3509,5518,-4795,6,13,-10
2824,190064,3462,5560,-4831,-3,13,-10
2825,190080,3492,5550,-4833,-1,9,-3
2826,190096,3507,5540,-4831,2,5,-1
2827,190112,3499,5512,-4839,3,1,-2
2828,190127,3499,5519,-4814,-6,2,0
2829,190151,3541,5502,-4783,-5,0,5
2830,190196,3486,5536,-4791,-2,-4,9
2831,190232,3479,5539,-4845,2,2,0
2832,190252,3555,5532,-4763,-14,7,13
2833,190267,3558,5533,-4732,-10,8,11
2834,190290,3471,5525,-4776,14,4,9
2835,190347,3583,5505,-4776,4,14,-1
2836,190368,3525,5550,-4800,10,16,-6
2837,190384,3523,5523,-4806,11,13,-4
2838,190400,3499,5527,-4822,12,14,-5
2839,190416,3434,5544,-4834,4,13,0
2840,190432,3459,5543,-4838,7,12,3
2841,190480,3521,5498,-4795,-7,10,8
2842,190516,3435,5558,-4833,-1,5,12
2843,190532,3455,5527,-4809,-5,0,21
2844,190547,3545,5531,-4782,5,-3,20
2845,190564,3549,5531,-4784,10,1,18
2846,190580,3588,5509,-4823,20,2,19
2847,190621,3517,5535,-4748,-2,5,11
2848,190652,3553,5533,-4788,32,7,8
2849,190683,3571,5510,-4889,13,16,1
2850,190699,3579,5517,-4793,-11,18,-7
2851,190715,3558,5513,-4757,-5,19,-7
2852,190755,3513,5562,-4847,28,18,-11
2853,190803,3569,5479,-4814,-7,23,-13
2854,190820,3519,5450,-4765,4,25,-2
2855,190836,3528,5442,-4778,17,20,1
2856,190852,3510,5488,-4833,28,17,3
2857,190867,3495,5492,-4864,24,16,8
2858,190883,3541,5463,-4835,19,12,17
2859,190917,3581,5467,-4807,27,12,22
2860,190960,3597,5493,-4844,33,14,23
2861,190987,3591,5507,-4807,29,18,20
2862,191003,3614,5510,-4851,40,22,7
2863,191019,3599,5534,-4903,29,24,-1
2864,191071,3558,5450,-4844,16,26,-3
2865,191105,3579,5463,-4900,6,24,11
2866,191121,3595,5433,-4889,-3,17,12
2867,191137,3581,5409,-4841,-9,20,15
2868,191153,3576,5412,-4824,-5,20,19
2869,191169,3620,5420,-4828,11,14,25
2870,191185,3541,5412,-4881,8,12,29
2871,191251,3650,5434,-4809,13,22,42
2872,191279,3576,5424,-4816,24,37,43
2873,191295,3530,5422,-4850,14,45,47
2874,191311,3611,5395,-4798,-1,53,60
2875,191326,3623,5388,-4755,10,66,66
2876,191351,3649,5343,-4847,1,69,64
2877,191404,3740,5376,-4694,32,81,67
2878,191430,3652,5426,-4799,52,82,64
2879,191445,3661,5370,-4873,49,84,76
2880,191461,3742,5377,-4833,20,90,79
2881,191484,3751,5346,-4737,34,84,71
2882,191539,3851,5339,-4852,99,74,64
2883,191560,3873,5343,-4918,69,79,57
2884,191576,3849,5351,-4822,45,87,50
2885,191592,3852,5314,-4766,54,88,50
2886,191615,3870,5328,-4713,76,88,40
2887,191631,3984,5339,-4890,106,88,30
2888,191668,3953,5337,-4849,48,100,-1
2889,191719,3934,5287,-4881,68,98,-19
2890,191735,4017,5256,-4857,57,101,-29
2891,191754,3944,5281,-4767,58,103,-47
2892,191769,3915,5243,-4769,65,105,-45
2893,191791,3962,5218,-4822,74,104,-43
2894,191814,3941,5183,-4852,71,99,-38
2895,191856,3899,5202,-4754,80,99,-40
2896,191890,3976,5259,-4802,111,95,-42
2897,191906,4007,5252,-4885,100,88,-43
2898,191922,4008,5246,-4844,89,88,-43
2899,191962,3997,5168,-4836,63,98,-64
2900,192000,3949,5075,-4924,46,100,-49
2901,192016,3959,5160,-4844,32,108,-58
2902,192032,4091,5015,-5157,-9,117,-46
2903,192047,4191,5290,-4854,-71,116,-93
2904,192063,4048,5366,-4745,-49,120,-101
2905,192087,3903,5314,-4468,30,89,-77
2906,192147,4159,5227,-5274,41,118,-63
2907,192167,4126,5221,-4800,-68,125,-94
2908,192183,3908,5073,-4626,-45,103,-105
2909,192199,3843,5260,-4407,115,107,-102
2910,192215,3883,5247,-4629,174,104,-85
2911,192237,3904,5248,-5011,137,92,-77
2912,192263,4109,5110,-4975,4,95,-57
2913,192324,3975,5149,-4845,114,80,-39
2914,192340,4059,5156,-4934,94,82,-41
2915,192356,4032,5204,-4916,24,90,-47
2916,192375,3975,5124,-4810,30,75,-33
2917,192398,3980,5158,-4661,85,57,-34
2918,192461,4117,5212,-4955,76,55,-38
2919,192487,3987,5123,-4655,82,53,-32
2920,192505,3987,5152,-4736,136,54,-36
2921,192522,3995,5149,-4796,142,56,-44
2922,192549,4029,5182,-4889,115,80,-51
2923,192604,3978,5152,-4832,41,80,-79
2924,192627,3899,5135,-4984,-19,70,-98
2925,192643,3819,5226,-4669,2,68,-100
2926,192659,3909,5078,-4599,106,58,-39
2927,192675,4063,5052,-4672,147,39,-27
2928,192718,4128,5083,-4949,55,70,-27
2929,192772,3957,5062,-5089,141,35,5
2930,192788,3946,5026,-5146,98,11,25
2931,192804,3955,4961,-5052,85,-5,36
2932,192820,4013,4975,-5009,113,-43,37
2933,192844,3994,5001,-5061,144,-74,41
2934,192911,4019,4904,-5173,14,-98,69
2935,192928,3963,4913,-5228,-18,-100,71
2936,192944,3954,4934,-5272,-71,-116,78
2937,192960,3954,4950,-5234,-118,-138,80
2938,192976,3979,4959,-5267,-150,-157,81
2939,193009,3915,4930,-5170,-206,-211,78
2940,193062,3972,5089,-5664,-422,-233,123
2941,193079,3955,5113,-5548,-532,-240,111
2942,193095,3929,5006,-5120,-663,-273,113
2943,193110,3887,5010,-4965,-661,-298,121
2944,193127,3820,4908,-4607,-501,-368,149
2945,193163,3636,5279,-5051,-205,-502,148
2946,193205,4178,5232,-4792,-404,-469,200
2947,193231,4121,5255,-4690,-413,-413,169
2948,193247,3912,5376,-4792,-376,-423,156
2949,193263,3808,5386,-4868,-366,-420,156
2950,193279,3520,5495,-4983,-375,-424,151
2951,193316,3635,5303,-4877,-488,-441,179
2952,193350,3653,5343,-4671,-467,-446,190
2953,193386,3394,5583,-4969,-397,-474,189
2954,193403,3416,5601,-4892,-443,-467,209
2955,193420,3761,5687,-4880,-485,-482,232
2956,193442,3724,5543,-4504,-522,-458,233
2957,193474,3688,5613,-4167,-338,-424,211
2958,193506,3507,5978,-4810,-277,-393,159
2959,193531,3399,5876,-4606,-415,-352,140
2960,193557,3362,5834,-4495,-416,-353,132
2961,193573,3372,5677,-4320,-359,-331,111
2962,193605,3417,5951,-4422,-276,-295,48
2963,193637,3495,5912,-4163,-344,-237,34
2964,193669,3531,6033,-4333,-237,-192,15
2965,193692,3267,5805,-4062,-190,-116,50
2966,193708,3178,5804,-4031,-145,-98,47
2967,193724,3037,5866,-4294,-64,-79,61
2968,193757,3114,5836,-4497,-120,-38,87
2969,193789,3225,5957,-4227,-126,-27,94
2970,193813,3483,5991,-4172,25,-23,104
2971,193840,3364,6038,-4225,72,-9,89
2972,193862,3381,5938,-4117,96,23,82
2973,193878,3453,6027,-4260,157,59,46
2974,193909,3459,6102,-4545,109,90,13
2975,193935,3522,5981,-4371,103,100,-27
2976,193962,3386,5972,-4401,133,106,-48
2977,193999,3377,5945,-4731,74,115,-106
2978,194015,3333,5852,-4534,-8,128,-115
2979,194040,3304,5819,-4339,23,119,-112
2980,194085,3462,5821,-4703,119,94,-87
2981,194110,3329,5792,-4560,10,87,-55
2982,194135,3306,5696,-4474,32,81,-39
2983,194151,3260,5792,-4426,91,55,-33
2984,194167,3280,5791,-4446,163,37,-5
2985,194189,3374,5832,-4584,182,31,2
2986,194217,3409,5833,-4655,148,30,6
2987,194244,3490,5851,-4628,61,46,-7
2988,194273,3415,5781,-4506,58,46,-13
2989,194304,3395,5864,-4634,107,35,-23
2990,194320,3408,5883,-4701,75,37,-28
2991,194336,3430,5855,-4684,40,40,-36
2992,194400,3351,5775,-4579,72,42,-55
2993,194420,3384,5824,-4650,76,40,-59
2994,194436,3372,5754,-4706,60,41,-47
2995,194451,3479,5687,-4624,36,36,-49
2996,194467,3411,5705,-4590,44,38,-58
2997,194483,3339,5691,-4568,66,32,-46
2998,194505,3345,5744,-4641,97,29,-33
2999,194570,3375,5760,-4656,59,37,-34
3000,194593,3383,5809,-4713,44,33,-38
3001,194612,3340,5824,-4755,24,34,-35
3002,194662,3288,5632,-4733,-19,23,-12
3003,194696,3352,5683,-4730,-7,15,19
3004,194712,3339,5729,-4760,-15,8,30
3005,194729,3342,5658,-4654,-37,3,50
3006,194746,3352,5681,-4655,-30,-7,59
3007,194764,3335,5703,-4650,-27,-7,60
3008,194781,3324,5722,-4682,-35,-11,66
3009,194857,3421,5772,-4481,-82,15,49
3010,194879,3417,5742,-4400,-13,4,61
3011,194895,3450,5788,-4476,30,-2,52
3012,194910,3404,5834,-4695,67,-7,37
3013,194929,3428,5834,-4741,54,-10,31
3014,194980,3488,5717,-4543,-47,2,2
3015,195015,3442,5712,-4545,-1,7,0
3016,195030,3424,5737,-4692,19,10,-4
3017,195047,3441,5740,-4670,2,13,-3
3018,195065,3499,5763,-4590,-7,12,-2
3019,195081,3473,5732,-4565,-9,14,-4
3020,195101,3444,5713,-4548,22,16,-2
3021,195143,3374,5746,-4632,29,20,-6
3022,195172,3452,5708,-4637,34,17,-3
3023,195198,3427,5685,-4632,44,16,2
3024,195214,3508,5654,-4668,29,20,7
3025,195229,3523,5679,-4656,24,16,6
3026,195267,3424,5695,-4627,27,16,17
3027,195313,3467,5700,-4678,45,25,22
3028,195329,3472,5733,-4659,34,24,18
3029,195345,3511,5698,-4636,25,27,18
3030,195361,3498,5679,-4587,27,27,16
3031,195384,3484,5707,-4635,77,30,11
3032,195412,3503,5703,-4722,65,35,2
3033,195463,3510,5650,-4654,48,38,-12
3034,195482,3473,5648,-4712,65,36,-8
3035,195498,3478,5622,-4747,64,29,-6
3036,195514,3469,5621,-4756,52,31,-7
3037,195531,3438,5604,-4677,38,33,-4
3038,195572,3549,5689,-4755,75,28,-4
3039,195626,3502,5650,-4667,16,36,-2
3040,195644,3486,5574,-4658,32,29,6
3041,195660,3535,5616,-4719,44,29,3
3042,195676,3525,5627,-4755,48,30,2
3043,195706,3534,5603,-4711,36,28,2
3044,195759,3513,5578,-4716,17,33,-10
3045,195781,3510,5551,-4705,43,28,-5
3046,195797,3522,5561,-4749,48,27,-5
3047,195812,3539,5593,-4807,38,28,-5
3048,195828,3558,5550,-4804,29,29,-3
3049,195884,3531,5581,-4696,47,23,-4
3050,195908,3513,5665,-4776,37,32,-17
3051,195933,3583,5622,-4743,-17,51,-29
3052,195949,3600,5615,-4705,-26,51,-41
3053,195965,3621,5644,-4716,-8,47,-59
3054,195988,3523,5561,-4654,-3,46,-63
3055,196061,3479,5517,-4701,-16,36,-38
3056,196080,3504,5482,-4657,25,26,-23
3057,196098,3500,5529,-4781,59,14,-12
3058,196115,3473,5529,-4778,48,12,8
3059,196132,3501,5521,-4760,44,6,18
3060,196184,3532,5541,-4729,27,2,28
3061,196217,3545,5576,-4738,56,-4,33
3062,196232,3558,5584,-4791,63,-5,31
3063,196248,3544,5574,-4817,42,-3,24
3064,196264,3547,5574,-4785,29,-1,20
3065,196280,3533,5551,-4687,22,2,16
3066,196349,3534,5573,-4734,17,8,-1
3067,196372,3537,5516,-4781,33,9,-1
3068,196388,3539,5533,-4800,30,13,-5
3069,196404,3493,5541,-4796,15,17,-8
3070,196420,3513,5486,-4748,19,18,-3
3071,196436,3561,5513,-4774,26,20,-4
3072,196489,3588,5511,-4765,22,22,-3
3073,196526,3555,5521,-4815,33,24,-12
3074,196542,3538,5532,-4822,22,28,-8
3075,196558,3568,5514,-4810,23,28,-6
3076,196573,3568,5488,-4800,22,26,-10
3077,196608,3541,5496,-4808,23,27,-11
3078,196661,3559,5482,-4827,33,27,-9
3079,196687,3553,5493,-4804,22,28,-12
3080,196703,3586,5497,-4813,31,29,-14
3081,196719,3585,5497,-4841,32,28,-17
3082,196734,3583,5492,-4843,31,26,-15
3083,196792,3551,5521,-4864,31,29,-19
3084,196817,3573,5465,-4854,5,28,-17
3085,196832,3572,5501,-4875,-6,30,-17
3086,196848,3581,5441,-4837,-8,27,-7
3087,196864,3605,5495,-4827,-10,30,-7
3088,196888,3599,5400,-4819,-8,25,0
3089,196910,3536,5500,-4782,10,27,-11
3090,196941,3566,5490,-4808,28,18,-3
3091,196988,3596,5478,-4863,26,11,-5
3092,197004,3594,5469,-4837,13,14,-9
3093,197020,3570,5484,-4836,10,18,-15
3094,197043,3585,5457,-4808,19,17,-9
3095,197089,3594,5308,-5117,-73,23,-6
3096,197118,3531,5642,-4801,-117,31,-39
3097,197133,3589,5357,-4745,-97,26,0
3098,197149,3662,5534,-4653,-72,17,-12
3099,197165,3479,5506,-4681,-3,14,-11
3100,197185,3608,5500,-4802,23,0,8
3101,197231,3617,5512,-4832,-32,8,-10
3102,197269,3532,5510,-4748,-6,5,-4
3103,197285,3581,5482,-4811,0,2,5
3104,197301,3614,5482,-4777,-7,1,4
3105,197317,3560,5462,-4802,4,2,1
3106,197341,3531,5485,-4831,4,1,5
3107,197400,3578,5504,-4832,-13,-4,13
3108,197420,3618,5476,-4758,-15,-3,14
3109,197435,3577,5491,-4785,-3,-4,11
3110,197451,3561,5538,-4803,4,-4,10
3111,197467,3580,5522,-4810,-20,2,15
3112,197488,3625,5526,-4703,-40,4,14
3113,197525,3586,5521,-4713,-6,11,3
3114,197574,3593,5532,-4828,-21,12,-6
3115,197590,3571,5498,-4750,-25,11,-19
3116,197607,3536,5478,-4762,-2,4,-19
3117,197629,3527,5466,-4791,5,3,-12
3118,197672,3584,5485,-4835,1,-8,6
3119,197717,3557,5487,-4779,5,-17,16
3120,197735,3537,5504,-4788,7,-16,18
3121,197751,3541,5543,-4735,4,-18,18
3122,197767,3583,5516,-4730,9,-19,24
3123,197783,3660,5559,-4800,31,-18,17
3124,197823,3580,5585,-4766,-4,-9,-6
3125,197872,3567,5535,-4817,10,-7,-12
3126,197892,3648,5542,-4845,1,-3,-18
3127,197908,3634,5521,-4795,-6,0,-25
3128,197924,3592,5539,-4706,-6,0,-34
3129,197946,3553,5546,-4822,-5,1,-34
3130,198001,3564,5497,-4843,5,1,-16
3131,198026,3619,5487,-4797,-1,5,-11
3132,198043,3551,5527,-4749,-9,3,-18
3133,198059,3507,5538,-4756,-11,2,-12
3134,198074,3512,5512,-4775,0,2,-1
3135,198108,3477,5520,-4794,5,5,-1
3136,198132,3554,5515,-4802,11,6,0
3137,198168,3561,5570,-4828,-11,5,-9
3138,198184,3559,5565,-4783,-20,3,-7
3139,198200,3524,5519,-4716,-5,-1,-9
3140,198215,3508,5516,-4801,14,3,-8
3141,198231,3526,5531,-4852,5,4,-8
3142,198286,3517,5533,-4797,2,6,-3
3143,198320,3542,5529,-4843,-1,3,-3
3144,198335,3523,5545,-4823,-7,3,-4
3145,198352,3511,5545,-4769,-4,0,-4
3146,198368,3499,5539,-4761,8,0,-6
3147,198384,3517,5564,-4753,12,0,-5
3148,198444,3531,5519,-4757,-6,3,-18
3149,198468,3523,5556,-4797,11,5,-17
3150,198484,3535,5534,-4794,11,4,-15
3151,198500,3553,5539,-4839,9,5,-18
3152,198515,3531,5555,-4851,-1,7,-19
3153,198531,3496,5548,-4764,-17,8,-20
3154,198561,3496,5537,-4802,5,6,-17
3155,198590,3477,5539,-4802,0,6,-18
3156,198626,3527,5522,-4786,5,5,-16
3157,198652,3491,5538,-4817,13,1,-16
3158,198668,3510,5571,-4815,9,1,-12
3159,198703,3451,5518,-4759,1,5,-6
3160,198752,3521,5561,-4813,0,1,6
3161,198768,3529,5552,-4793,3,-1,9
3162,198784,3502,5538,-4765,11,-2,7
3163,198800,3504,5564,-4802,8,1,5
3164,198815,3460,5552,-4818,-10,10,5
3165,198831,3485,5529,-4803,-20,9,7
3166,198906,3530,5523,-4826,-14,19,22
3167,198927,3447,5511,-4792,-27,17,29
3168,198943,3448,5502,-4769,-18,14,38
3169,198959,3504,5502,-4787,8,11,42
3170,198974,3495,5508,-4843,17,7,39
3171,199038,3648,5573,-4819,17,0,26
3172,199064,3598,5585,-4802,4,2,13
3173,199080,3543,5559,-4777,1,6,4
3174,199095,3519,5551,-4785,-3,9,1
3175,199111,3504,5530,-4805,-9,10,-3
3176,199127,3529,5519,-4815,-12,10,-5
3177,199147,3565,5510,-4796,-11,9,-5
3178,199212,3522,5513,-4837,-10,8,-4
3179,199238,3492,5493,-4778,-11,6,0
3180,199253,3502,5506,-4766,2,4,2
3181,199272,3538,5528,-4799,12,2,3
3182,199300,3600,5526,-4820,6,3,5
3183,199369,3511,5534,-4795,5,1,-2
3184,199386,3527,5539,-4851,9,2,3
3185,199404,3549,5528,-4815,-8,1,-1
3186,199421,3566,5526,-4776,-13,0,-2
3187,199476,3558,5502,-4834,1,2,0
3188,199501,3551,5518,-4803,-8,3,-1
3189,199516,3566,5541,-4765,-3,4,3
3190,199532,3564,5541,-4768,1,4,5
3191,199548,3532,5515,-4815,0,6,0
3192,199566,3523,5495,-4795,-5,6,1
3193,199589,3556,5505,-4816,1,3,0
3194,199657,3554,5529,-4839,5,5,2
3195,199685,3562,5497,-4780,-17,10,-3
3196,199703,3555,5501,-4790,-9,7,-3
3197,199720,3561,5519,-4776,8,6,-2
3198,199735,3561,5503,-4810,13,5,-3
3199,199796,3574,5519,-4801,-7,6,-3
3200,199824,3551,5508,-4819,-8,7,-1
3201,199840,3521,5509,-4786,-8,7,-4
3202,199855,3503,5512,-4776,-7,6,-1
3203,199871,3521,5520,-4817,0,5,2
3204,199894,3540,5502,-4772,-6,7,6
3205,199943,3552,5545,-4796,0,5,3
3206,199973,3523,5521,-4822,-11,8,0
3207,199990,3507,5527,-4799,-11,5,3
3208,200006,3537,5536,-4801,-9,4,4
3209,200022,3569,5518,-4793,-4,5,4
3210,200045,3549,5512,-4786,-4,4,3
3211,200090,3542,5493,-4749,-16,8,10
3212,200116,3566,5504,-4789,10,7,10
3213,200139,3568,5547,-4837,12,3,10
3214,200154,3551,5496,-4785,2,2,10
3215,200170,3542,5499,-4764,5,2,12
3216,200194,3570,5511,-4802,12,5,13
3217,200246,3555,5523,-4781,-2,2,13
3218,200271,3593,5494,-4779,11,-1,12
3219,200288,3558,5527,-4855,13,0,9
3220,200305,3585,5523,-4813,-2,-3,7
3221,200322,3581,5493,-4788,-3,0,6
3222,200347,3540,5542,-4795,1,1,1
3223,200409,3557,5502,-4810,-1,4,-3
3224,200430,3551,5484,-4779,-2,7,2
3225,200447,3571,5489,-4799,2,7,4
3226,200463,3578,5486,-4827,-2,6,5
3227,200478,3576,5515,-4808,1,5,2
3228,200528,3556,5508,-4816,13,6,7
3229,200566,3601,5508,-4818,-5,5,5
3230,200582,3565,5491,-4795,-6,8,6
3231,200599,3574,5470,-4766,-2,7,6
3232,200620,3556,5518,-4843,3,8,5
3233,200643,3558,5470,-4830,-6,9,14
3234,200706,3584,5513,-4800,2,6,12
3235,200728,3611,5505,-4779,8,3,10
3236,200745,3610,5529,-4826,9,6,2
3237,200763,3575,5504,-4804,1,6,1
3238,200778,3566,5499,-4799,-1,5,-2
3239,200831,3587,5503,-4809,1,9,-9
3240,200863,3590,5485,-4796,-6,10,-13
3241,200878,3565,5480,-4799,-6,9,-14
3242,200894,3538,5491,-4797,-3,7,-12
3243,200910,3533,5485,-4806,-3,6,-9
3244,200926,3567,5441,-4792,2,5,1
3245,200984,3593,5499,-4832,11,2,5
3246,201020,3545,5494,-4811,5,1,9
3247,201038,3576,5506,-4797,4,2,7
3248,201055,3593,5474,-4814,13,3,3
3249,201074,3581,5492,-4821,14,3,2
3250,201121,3604,5505,-4812,-6,4,-2
3251,201159,3574,5485,-4809,7,5,-2
3252,201182,3570,5478,-4835,4,6,3
3253,201198,3581,5482,-4817,-8,8,-1
3254,201216,3581,5469,-4801,-2,7,0
3255,201242,3598,5493,-4811,8,8,1
3256,201315,3572,5464,-4786,4,8,11
3257,201331,3621,5491,-4828,16,5,10
3258,201349,3599,5482,-4826,18,5,8
3259,201366,3554,5477,-4814,9,3,12
3260,201388,3583,5453,-4815,14,6,14
3261,201410,3613,5515,-4878,10,4,6
3262,201459,3598,5483,-4774,7,6,3
3263,201495,3612,5480,-4851,-7,11,1
3264,201515,3597,5462,-4843,-9,10,-8
3265,201533,3548,5471,-4800,-7,10,-9
3266,201600,3603,5458,-4839,-3,8,0
3267,201624,3540,5471,-4807,0,2,3
3268,201644,3552,5434,-4810,0,2,10
3269,201662,3620,5458,-4848,8,2,12
3270,201679,3631,5464,-4844,5,0,8
3271,201704,3591,5474,-4796,0,-2,11
3272,201726,3609,5466,-4814,20,0,10
3273,201801,3589,5456,-4817,8,1,4
3274,201818,3589,5441,-4837,14,2,9
3275,201849,3609,5445,-4838,0,3,5
3276,201896,3584,5463,-4827,6,4,9
3277,201916,3572,5448,-4836,5,3,7
3278,201932,3569,5446,-4831,13,0,9
3279,201948,3612,5481,-4848,11,1,8
3280,201967,3624,5470,-4829,7,2,7
3281,201990,3620,5465,-4856,3,5,1
3282,202057,3592,5419,-4830,10,5,5
3283,202078,3618,5459,-4878,14,4,5
3284,202094,3628,5453,-4841,-3,6,5
3285,202110,3614,5426,-4814,3,6,8
3286,202126,3602,5449,-4831,5,6,5
3287,202149,3584,5452,-4872,2,5,4
3288,202211,3630,5470,-4862,11,5,3
3289,202232,3617,5442,-4824,1,7,0
3290,202248,3586,5431,-4808,4,6,-2
3291,202264,3626,5447,-4836,9,7,-1
3292,202279,3641,5434,-4845,9,7,2
3293,202302,3654,5434,-4877,7,6,1
3294,202365,3632,5448,-4839,4,11,-7
3295,202384,3611,5464,-4861,10,10,-6
3296,202399,3611,5446,-4879,5,11,-7
3297,202415,3628,5406,-4863,3,12,-7
3298,202431,3605,5413,-4843,0,13,-7
3299,202493,3620,5446,-4853,4,12,-5
3300,202518,3590,5425,-4816,6,9,-4
3301,202534,3596,5427,-4834,16,10,0
3302,202550,3615,5426,-4903,18,10,-3
3303,202566,3635,5425,-4906,10,12,-4
3304,202601,3577,5452,-4817,7,14,-6
3305,202652,3641,5402,-4876,9,12,3
3306,202672,3613,5413,-4841,5,13,-4
3307,202688,3620,5426,-4826,9,14,-4
3308,202704,3597,5450,-4883,16,13,-3
3309,202719,3604,5422,-4858,10,10,3
3310,202758,3609,5429,-4861,11,9,-3
3311,202807,3643,5428,-4800,2,11,-2
3312,202825,3622,5444,-4851,16,8,-7
3313,202840,3591,5433,-4863,7,14,-7
3314,202857,3599,5426,-4871,1,14,-5
3315,202873,3585,5411,-4865,-2,14,-6
3316,202919,3630,5431,-4827,11,15,2
3317,202966,3570,5437,-4848,-13,19,-5
3318,202982,3575,5412,-4822,-11,19,0
3319,202997,3635,5404,-4855,12,15,3
3320,203013,3618,5429,-4882,10,14,1
3321,203029,3620,5417,-4892,4,13,2
3322,203098,3646,5415,-4870,23,12,2
3323,203126,3673,5450,-4873,6,12,-1
3324,203142,3676,5449,-4850,4,12,-2
3325,203157,3612,5456,-4834,5,12,-15
3326,203174,3587,5448,-4857,7,13,-14
3327,203203,3591,5424,-4884,1,15,-18
3328,203265,3648,5417,-4876,13,11,-10
3329,203282,3619,5365,-4878,12,11,-6
3330,203297,3589,5394,-4875,4,10,-4
3331,203313,3576,5374,-4882,5,12,0
3332,203335,3599,5381,-4843,3,7,1
3333,203398,3666,5416,-4901,8,6,6
3334,203418,3647,5409,-4858,6,6,3
3335,203434,3628,5412,-4818,11,9,4
3336,203450,3641,5428,-4879,28,9,-2
3337,203466,3624,5444,-4938,18,8,-5
3338,203489,3607,5401,-4902,-7,14,-4
3339,203550,3613,5402,-4900,12,9,-2
3340,203572,3634,5354,-4901,5,9,4
3341,203588,3641,5368,-4886,8,9,2
3342,203607,3618,5385,-4899,9,7,0
3343,203627,3619,5393,-4850,9,7,3
3344,203687,3643,5375,-4887,5,8,8
3345,203711,3659,5383,-4890,7,8,2
3346,203728,3637,5412,-4868,11,6,1
